,Participant,Block,Condition,Trial,RT,Correct,Orientation,Agegr,Sacstart,Sacend,Sacduration,Xstart,Ystart,Xend,Yend,Amplitude,Velocity
65,1,1,AV,1,0.911,1,0,Young,195,258,64,877.5,381.9,1012.1,272.9,3.74,223
66,1,1,AV,2,2.824,1,0,Young,960,967,8,990.8,261.4,969.5,254.6,0.43,57
67,1,1,AV,3,1.866,1,0,Young,216,255,40,822,260.4,747.9,213.8,1.83,235
68,1,1,AV,4,0.771,1,0,Young,157,181,25,851.3,300.9,961.7,275.1,2.16,176
69,1,1,AV,5,0.953,0,0,Young,688,706,19,938.5,276.2,964.7,257.6,0.68,71
70,1,1,AV,6,3.722,1,0,Young,134,185,52,761.4,256.7,938.1,293.9,3.42,309
71,1,1,AV,7,0.673,1,0,Young,455,475,21,960.4,304.9,959.1,276.2,0.74,110
72,1,1,AV,8,1.063,1,0,Young,857,877,21,967.6,275.5,1002.4,273.8,0.65,90
73,1,1,AV,9,1.269,1,0,Young,177,222,46,791.6,256.7,916.8,292,2.5,303
74,1,1,AV,10,0.709,0,0,Young,609,613,5,922.9,307.7,925.4,294.8,0.33,46
75,1,1,AV,11,0.908,1,0,Young,877,893,17,956.2,302.1,910.5,293.8,0.88,77
76,1,1,AV,12,0.977,1,0,Young,91,148,58,886.4,365.8,832.2,237,3.44,265
77,1,1,AV,13,6.61,0,0,Young,381,411,31,837.6,230.9,874.6,242.8,0.76,151
78,1,1,AV,14,0.684,1,0,Young,732,750,19,890.2,240.8,869.2,210.2,0.88,68
79,1,1,AV,15,0.944,1,0,Young,641,659,19,792.8,245.5,733,242,1.12,104
80,1,1,AV,16,0.697,1,0,Young,196,226,31,838.6,221.3,899.3,236.5,1.2,169
81,1,2,V,1,3.219,1,0,Young,60,65,6,795.6,256.7,796.7,265.4,0.22,54
82,1,2,V,2,0.781,1,0,Young,173,209,37,793.9,264,851.2,275.1,1.1,173
83,1,2,V,3,5.8,0,0,Young,226,267,42,810.1,232.9,800.6,309.9,1.98,265
84,1,2,V,4,3.895,1,0,Young,420,457,38,803.9,319,788.8,274,1.18,250
85,1,2,V,5,7.668,0,0,Young,896,918,23,807.3,251.3,864.4,239.7,1.11,124
86,1,2,V,6,2.6,0,0,Young,128,171,44,858.9,257.4,862.1,331.2,1.89,166
87,1,2,V,7,1.126,1,0,Young,599,610,12,877.6,339.6,839.6,345.4,0.72,72
88,1,2,V,8,1.083,0,0,Young,2,225,224,782.7,350.4,789.3,329.1,0.55,585
89,1,2,V,9,0.635,1,0,Young,373,411,39,804.3,324.1,848.1,317.3,0.83,183
90,1,2,V,10,1.869,1,0,Young,988,1009,22,877.1,322.3,918.5,311.1,0.82,103
91,1,2,V,11,0.841,1,0,Young,162,185,24,813.1,229.6,843,319.2,2.36,217
92,1,2,V,12,0.862,1,0,Young,470,488,19,833.5,299.3,775.5,292.4,1.09,110
93,1,2,V,13,3.47,0,0,Young,784,803,20,776.8,312.5,836.9,294.9,1.2,113
94,1,2,V,14,1.042,1,0,Young,55,84,30,756.8,177.6,816.7,281.1,2.88,256
95,1,2,V,15,7.771,1,0,Young,536,556,21,834.7,282.9,806.2,276.3,0.56,80
96,1,2,V,16,0.86,1,0,Young,-20,159,180,867.8,214,812.3,228.6,1.1,426
97,1,3,dAdV,1,1.249,1,3,Young,608,630,23,810.5,226.6,837.3,223.1,0.51,81
98,1,3,dAdV,2,0.781,0,4,Young,916,933,18,829.6,230.4,770.1,228.6,1.11,94
99,1,3,dAdV,3,1.872,1,3,Young,224,260,37,847.6,235.6,847.6,283.3,1.22,204
100,1,3,dAdV,4,0.816,0,4,Young,883,891,9,835,281.9,816.3,285,0.36,49
101,1,3,dAdV,5,4.834,0,1,Young,23,44,22,776.7,219.5,856.5,236.7,1.55,130
102,1,3,dAdV,6,2.678,0,1,Young,280,303,24,844.4,235.3,892.2,276.6,1.38,158
103,1,3,dAdV,7,1.712,1,4,Young,142,181,40,779.8,242.6,871.6,245.5,1.71,228
104,1,3,dAdV,8,2.507,1,3,Young,158,204,47,824.9,277.2,938.5,323.8,2.43,278
105,1,3,dAdV,9,4.463,0,2,Young,510,532,23,947.9,344.3,917.4,318.2,0.87,85
106,1,3,dAdV,10,0.892,1,3,Young,927,943,17,901.9,333.9,938.2,315.3,0.83,75
107,1,3,dAdV,11,1.593,0,4,Young,-95,71,167,831.4,307.3,835.6,288.8,0.48,676
108,1,3,dAdV,12,2.24,0,3,Young,227,260,34,831.6,280.6,856.1,301.5,0.7,152
109,1,3,dAdV,13,6.399,1,2,Young,567,581,15,866.4,305.6,838.2,279.1,0.86,85
110,1,3,dAdV,14,1.026,1,2,Young,90,196,107,814.3,245.3,951.2,317.6,3.15,350
111,1,3,dAdV,15,0.826,1,1,Young,646,668,23,956.3,318.3,970.3,286.4,0.86,120
112,1,3,dAdV,16,4.548,1,4,Young,259,291,33,846.5,205.5,862.7,232.8,0.76,160
113,1,4,A,1,6.073,0,0,Young,600,607,8,868.4,260.2,856.7,242.5,0.5,65
114,1,4,A,2,0.729,1,0,Young,843,847,5,859.8,246.7,861,256.8,0.26,48
115,1,4,A,3,9.896,1,0,Young,987,1008,22,859.4,259.3,911,248.3,1,96
116,1,4,A,4,4.121,1,0,Young,195,219,25,766.6,226.2,815.4,261.1,1.28,157
117,1,4,A,5,4.391,0,0,Young,757,767,11,830.9,252.5,819,224.4,0.75,81
118,1,4,A,6,0.83,1,0,Young,511,529,19,862.9,270.8,895.6,257.2,0.7,83
119,1,4,A,7,6.302,1,0,Young,957,969,13,899.2,262.8,858.5,268.6,0.77,76
120,1,4,A,8,6.631,1,0,Young,156,214,59,793.9,323.1,968,328.3,3.24,276
121,1,4,A,9,1.048,1,0,Young,60,77,18,846.1,238.3,786.5,263.2,1.28,104
122,1,4,A,10,4.84,0,0,Young,217,250,34,791.7,259,824.3,251.7,0.64,145
123,1,4,A,11,1.912,1,0,Young,626,642,17,837.7,257.8,797,248,0.8,66
124,1,4,A,12,0.759,1,0,Young,971,989,19,802.4,255,861.6,257.1,1.1,97
125,1,4,A,13,3.355,1,0,Young,364,378,15,830.5,293.6,865.5,313.7,0.83,79
126,1,4,A,14,1.91,1,0,Young,751,771,21,849.3,302.5,872.3,248.8,1.44,122
127,1,4,A,15,0.819,0,0,Young,234,257,24,850.1,293.7,864.7,360.3,1.72,173
128,1,4,A,16,0.652,1,0,Young,622,645,24,865.6,370,897.5,346.8,0.84,99
129,1,5,dA,1,3.243,0,0,Young,210,245,36,791.8,279.1,859.6,286.3,1.27,182
130,1,5,dA,2,4.256,1,0,Young,623,653,31,872.1,267.5,867.5,239,0.74,122
131,1,5,dA,3,0.833,0,0,Young,962,978,17,870.3,223.8,912.9,204.3,0.94,96
132,1,5,dA,4,1.529,1,0,Young,161,185,25,795.2,244.8,902.6,258.5,2.03,185
133,1,5,dA,5,9.392,0,0,Young,721,732,12,882.8,275.2,899.9,258.7,0.53,63
134,1,5,dA,6,1.193,0,0,Young,-31,26,58,860.5,200.5,946.3,350.3,4.16,244
135,1,5,dA,7,0.759,1,0,Young,196,243,48,953.5,372.1,876.2,254.7,3.33,344
136,1,5,dA,8,1.648,0,0,Young,497,513,17,871.6,233.2,817.1,231.2,1.02,92
137,1,5,dA,9,1.426,0,0,Young,788,838,51,822,240.7,838.7,364.7,3.18,160
138,1,5,dA,10,2.679,0,0,Young,142,200,59,856.3,101.8,962.8,276.3,4.91,404
139,1,5,dA,11,5.934,0,0,Young,302,342,41,968.3,290.9,979,244.6,1.21,227
140,1,5,dA,12,1.52,1,0,Young,849,858,10,938.2,269.2,911.6,263.8,0.52,63
141,1,5,dA,13,0.573,1,0,Young,965,970,6,919.4,269.9,923.8,284.8,0.39,51
142,1,5,dA,14,3.445,0,0,Young,302,349,48,841.9,257.3,867.7,384,3.26,338
143,1,5,dA,15,2.761,0,0,Young,514,572,59,878.4,412.7,857.4,209.1,5.21,430
144,1,5,dA,16,4.603,1,0,Young,919,1022,104,855.5,220,874.5,709.9,12.12,400
145,1,6,AdV,1,5.656,1,2,Young,179,231,53,832.5,265.1,930.2,381.5,3.48,243
146,1,6,AdV,2,1.256,0,4,Young,362,419,58,928.9,410.6,897.4,262.5,3.81,307
147,1,6,AdV,3,10.18,0,3,Young,606,710,105,894.9,268.8,938.1,870.4,14.55,410
148,1,6,AdV,4,3.194,1,3,Young,905,982,78,950.4,842.9,902.2,287.3,13.5,631
149,1,6,AdV,5,2.004,1,4,Young,151,282,132,846.4,391.8,867.5,243.4,3.81,448
150,1,6,AdV,6,2.454,0,3,Young,539,668,130,857.7,241.8,904,926.4,16.44,339
151,1,6,AdV,7,3.572,1,1,Young,842,929,88,904.5,884.1,843.7,220.7,16.04,582
152,1,6,AdV,8,1.725,0,4,Young,-17,2,20,866.7,326.1,932.6,351.3,1.38,125
153,1,6,AdV,9,0.963,0,2,Young,211,252,42,921,351.7,857.9,242.8,3.02,304
154,1,6,AdV,10,2.96,1,4,Young,355,360,6,858.1,231.7,858.4,244.1,0.32,41
155,1,6,AdV,11,0.648,1,3,Young,439,665,227,850.4,253.9,862.3,468.8,5.44,739
156,1,6,AdV,12,0.813,1,1,Young,792,869,78,892.8,899.4,849.2,370.3,12.68,558
157,1,6,AdV,13,0.944,0,1,Young,944,978,35,859.8,373.8,837.8,316.5,1.51,218
158,1,6,AdV,14,3.552,1,1,Young,379,490,112,844.9,257.7,883.1,778,12.76,263
159,1,6,AdV,15,1.07,1,4,Young,644,722,79,876,738.2,867.1,243.5,12.19,629
160,1,6,AdV,16,2.382,0,2,Young,391,475,85,842.1,277.5,905.4,740.3,11.44,383
161,1,7,dV,1,3.038,1,3,Young,641,716,76,922.4,744.6,915.1,227.6,12.73,639
162,1,7,dV,2,2.744,0,2,Young,163,188,26,808.2,318.7,914.9,245.3,2.73,234
163,1,7,dV,3,5.571,1,2,Young,362,483,122,908.1,260,879.5,869.2,14.72,369
164,1,7,dV,4,0.803,1,2,Young,629,721,93,876.6,842.1,854.7,220.3,15.1,675
165,1,7,dV,5,4.268,0,1,Young,322,386,65,843.2,250.1,939.9,449.1,5.37,319
166,1,7,dV,6,4.068,1,4,Young,550,610,61,942.9,447.8,900.5,274.5,4.47,358
167,1,7,dV,7,1.075,0,3,Young,187,239,53,1026.2,385.4,875.2,227.1,4.92,349
168,1,7,dV,8,1.075,1,2,Young,534,616,83,863.7,234.8,869,544.7,7.81,229
169,1,7,dV,9,2.608,0,3,Young,768,840,73,873.7,548.5,852.5,205.8,8.65,604
170,1,7,dV,10,7.473,0,1,Young,-9,54,64,832,274.3,835.9,475.9,5.1,205
171,1,7,dV,11,4.182,1,3,Young,236,299,64,838.7,502,824.1,302.2,5.05,396
172,1,7,dV,12,0.781,1,3,Young,565,626,62,834.7,306.9,863.4,581,6.88,362
173,1,7,dV,13,1.816,0,1,Young,745,811,67,877.6,605.9,855.7,296.9,7.73,501
174,1,7,dV,14,1.591,1,1,Young,27,66,40,874.5,333.6,995.1,397.4,2.76,150
175,1,7,dV,15,1.518,1,4,Young,239,300,62,986,397.2,770.8,189.8,6.64,442
176,1,7,dV,16,0.968,1,4,Young,528,655,128,774.1,198.4,815.4,764.9,13.92,245
177,1,8,dAV,1,0.805,1,0,Young,754,832,79,819,764,762.9,262.2,12.34,638
178,1,8,dAV,2,1.092,1,0,Young,24,76,53,1114,1564.7,1302.8,1640.6,3.18,187
179,1,8,dAV,3,1.546,1,0,Young,242,394,153,1309.2,1621.7,864.2,391.2,26.31,948
180,1,8,dAV,4,5.446,1,0,Young,452,512,61,876.9,403.1,876.5,212.5,4.86,421
181,1,8,dAV,5,0.889,1,0,Young,789,865,77,881.2,244.5,906.2,568.1,8.14,307
182,1,8,dAV,6,1.246,1,0,Young,202,249,48,810.7,247.4,900.3,324,2.57,248
183,1,8,dAV,7,0.936,1,0,Young,403,424,22,914.2,370,896,424.4,1.42,91
184,1,8,dAV,8,2.329,1,0,Young,458,560,103,885.4,392.5,932.5,926.9,12.75,354
185,1,8,dAV,9,1.095,0,0,Young,634,695,62,949.5,924,889,480.6,10.55,571
186,1,8,dAV,10,3.847,1,0,Young,752,797,46,895.8,463,870.1,325.2,3.52,355
187,1,8,dAV,11,0.759,1,0,Young,-35,137,173,849.5,318.7,821.6,327,0.56,527
188,1,8,dAV,12,0.583,1,0,Young,513,574,62,819.8,340.7,852.8,528.5,4.75,351
189,1,8,dAV,13,1.804,1,0,Young,643,690,48,854.7,527.4,849.2,362,4.15,392
190,1,8,dAV,14,1.006,1,0,Young,106,132,27,841.5,295,894.9,262,1.3,92
191,1,8,dAV,15,0.71,1,0,Young,207,244,38,884.2,259.1,952.2,251,1.29,220
192,1,8,dAV,16,1.997,1,0,Young,426,506,81,968.8,240.2,980.5,808.9,13.89,325
193,1,9,V,17,2.302,1,0,Young,599,657,59,972.9,786.9,947,347.7,10.71,617
194,1,9,V,18,2.705,0,0,Young,847,885,39,937.6,333.2,942.2,239.3,2.41,282
195,1,9,V,19,2.472,1,0,Young,440,572,133,842.5,254,920.8,730.9,11.83,292
196,1,9,V,20,0.732,0,0,Young,696,765,70,891.5,663.3,835.3,283.1,9.49,467
197,1,9,V,21,0.8,1,0,Young,943,993,51,849.6,295.9,803.6,232.2,1.84,190
198,1,9,V,22,0.976,1,0,Young,111,148,38,842.6,393.9,827.1,347.5,1.21,187
199,1,9,V,23,0.597,1,0,Young,262,320,59,822.3,326.7,990.9,269,3.47,310
200,1,9,V,24,1.655,1,0,Young,778,972,195,966.4,280.3,1024.8,335.8,1.79,367
201,1,9,V,25,0.685,1,0,Young,435,497,63,825.2,261,894.4,473,5.52,301
202,1,9,V,26,2.466,0,0,Young,596,661,66,896.1,500.1,856.3,275.7,5.71,420
203,1,9,V,27,3.205,0,0,Young,284,309,26,800.4,247.7,675.7,191.7,2.73,218
204,1,9,V,28,3.557,0,0,Young,576,768,193,684.9,207.7,795.3,231,2.14,618
205,1,9,V,29,0.642,0,0,Young,985,1023,39,833.4,235.1,847.2,175.2,1.56,190
206,1,9,V,30,1.518,0,0,Young,186,230,45,850.2,379.4,814.4,286.5,2.46,211
207,1,9,V,31,2.193,1,0,Young,428,535,108,816.3,283.5,907.4,787.4,12.42,229
208,1,9,V,32,0.873,1,0,Young,675,749,75,905.2,718.2,862.1,304.4,10.24,602
209,1,10,A,17,2.092,1,0,Young,113,147,35,825.3,321,836.5,300.2,0.57,137
210,1,10,A,18,1.101,0,0,Young,575,596,22,822.1,274.4,892.1,254.4,1.4,124
211,1,10,A,19,5.018,0,0,Young,822,936,115,893.7,255.7,892.2,507.1,6.36,282
212,1,10,A,20,1.182,1,0,Young,960,990,31,913.5,553.4,897,652.4,2.44,124
213,1,10,A,21,2.615,0,0,Young,195,260,66,988.7,476.8,892.3,259,5.8,408
214,1,10,A,22,1.074,0,0,Young,505,621,117,908,286.2,935.3,724.1,10.81,354
215,1,10,A,23,3.395,0,0,Young,771,846,76,933.8,721.8,924.9,238.5,11.93,607
216,1,10,A,24,0.945,0,0,Young,190,242,53,803.8,365.4,814.4,246.9,3.03,440
217,1,10,A,25,0.529,1,0,Young,486,607,122,803.3,248.7,966.2,902.2,15.98,330
218,1,10,A,26,2.683,0,0,Young,663,738,76,928.7,822.6,844.2,294.9,12.92,321
219,1,10,A,27,0.683,1,0,Young,817,869,53,865.6,323.9,824.6,208.7,3.05,425
220,1,10,A,28,2.738,1,0,Young,226,265,40,845.9,267,916.4,278.1,1.34,198
221,1,10,A,29,0.796,1,0,Young,435,459,25,938.5,298.7,974.3,403.3,2.74,190
222,1,10,A,30,8.538,0,0,Young,483,565,83,963.6,431.5,971.2,930.8,11.85,264
223,1,10,A,31,6.021,0,0,Young,739,822,84,979.8,917.3,923.2,212.9,16.96,726
224,1,10,A,32,0.752,1,0,Young,335,378,44,831.7,265.7,912,254.3,1.53,182
225,1,11,AV,17,2.378,1,0,Young,547,659,113,930.1,271.4,895.6,801.3,12.94,284
226,1,11,AV,18,0.624,0,0,Young,780,859,80,913.7,785.6,921.2,255.2,12.98,627
227,1,11,AV,19,0.974,1,0,Young,118,187,70,1024.2,433.2,836.3,244.7,5.93,279
228,1,11,AV,20,0.9,1,0,Young,407,547,141,840.7,267.9,824.6,880.1,14.75,365
229,1,11,AV,21,2.099,1,0,Young,681,764,84,832.8,854.3,774.7,204.7,15.78,644
230,1,11,AV,22,1.466,1,0,Young,57,240,184,205.9,1357.5,836.9,323.4,24.92,481
231,1,11,AV,23,0.935,1,0,Young,364,396,33,849.5,328,883.5,278,1.43,227
232,1,11,AV,24,5.133,0,0,Young,606,656,51,882,277,876,506,5.78,320
233,1,11,AV,25,4.605,0,0,Young,818,869,52,883.1,543.7,911.1,314.9,5.77,434
234,1,11,AV,26,1.093,1,0,Young,178,231,54,794.6,265.6,897,371.6,3.31,285
235,1,11,AV,27,1.081,1,0,Young,435,483,49,906.7,401.5,869.7,283.8,3.07,358
236,1,11,AV,28,0.653,1,0,Young,573,690,118,869.8,268.7,913.6,754.4,11.96,281
237,1,11,AV,29,0.778,0,0,Young,850,922,73,920.9,763.9,877.8,338.1,10.44,634
238,1,11,AV,30,1.655,1,0,Young,192,242,51,837,266,942.4,343.8,2.79,319
239,1,11,AV,31,3.714,1,0,Young,401,466,66,952.1,358.5,926.8,194.6,4.22,371
240,1,11,AV,32,1.986,0,0,Young,670,764,95,929,224.6,961.7,770,13.41,364
241,1,12,AdV,17,0.663,1,1,Young,928,1009,82,974.7,766.7,944,257,12.52,589
242,1,12,AdV,18,1.142,1,2,Young,18,39,22,823.3,259,771.4,232.5,1.18,96
243,1,12,AdV,19,2.572,1,2,Young,205,254,50,784,232.6,915.4,251,2.49,229
244,1,12,AdV,20,3.037,1,3,Young,514,595,82,933.2,262.1,958.6,650.6,9.68,264
245,1,12,AdV,21,0.934,1,3,Young,714,790,77,968.5,652.3,949.7,243.7,10.18,497
246,1,12,AdV,22,4.476,1,2,Young,-88,110,199,806.6,391.8,834.7,335.9,1.51,403
247,1,12,AdV,23,0.804,1,4,Young,255,302,48,855.3,350.2,1000.5,315.1,2.84,309
248,1,12,AdV,24,0.998,1,4,Young,750,765,16,1007.7,330.7,964.1,336.8,0.83,80
249,1,12,AdV,25,7.545,0,3,Young,141,157,17,281.2,1344.7,239.4,1319.6,0.81,74
250,1,12,AdV,26,1.482,0,1,Young,510,606,97,233,1335.8,958.4,342.2,24.96,664
251,1,12,AdV,27,1.162,1,4,Young,701,743,43,952.1,348.9,903,271.5,2.18,295
252,1,12,AdV,28,0.962,1,4,Young,23,219,197,988.4,403.1,972.2,425.6,0.64,276
253,1,12,AdV,29,1.656,1,2,Young,403,467,65,980,424.4,760.1,201,7,450
254,1,12,AdV,30,0.853,1,3,Young,708,800,93,753.9,214.3,818.7,807.1,14.51,413
255,1,12,AdV,31,0.66,1,1,Young,933,1012,80,823.9,812.4,753.8,248.6,13.79,584
256,1,12,AdV,32,0.869,0,4,Young,438,470,33,795.8,245.4,849.9,279.1,1.33,91
257,1,13,dAdV,17,1.068,1,3,Young,599,791,193,853.1,271.6,829.5,205.1,1.77,371
258,1,13,dAdV,18,2.28,0,3,Young,72,83,12,813.9,237.6,850.9,247.9,0.74,77
259,1,13,dAdV,19,0.894,1,4,Young,387,431,45,860.8,281.5,905.4,492.4,5.4,254
260,1,13,dAdV,20,3.375,1,4,Young,586,654,69,911.2,504,871.4,242.5,6.65,370
261,1,13,dAdV,21,2.258,1,4,Young,94,225,132,1038.8,401.2,821.7,257.2,5.45,498
262,1,13,dAdV,22,1.825,1,4,Young,610,656,47,832.1,271.3,837.8,366.8,2.44,229
263,1,13,dAdV,23,0.943,1,1,Young,749,797,49,840.6,384.9,827.3,264.1,3.09,262
264,1,13,dAdV,24,0.606,1,1,Young,177,227,51,799.2,379.1,957.1,308.6,3.44,239
265,1,13,dAdV,25,1.217,1,3,Young,481,560,80,967.5,291.3,941,669.8,9.39,373
266,1,13,dAdV,26,0.753,1,1,Young,661,731,71,942.6,659.3,958.9,328,8.22,519
267,1,13,dAdV,27,4.041,0,3,Young,380,448,69,817.5,253.5,743.4,557.2,7.74,393
268,1,13,dAdV,28,0.729,1,1,Young,593,653,61,759.8,559.2,802.5,308.3,6.33,412
269,1,13,dAdV,29,0.662,1,4,Young,958,1097,140,817.5,311.1,793.2,350.7,1.1,288
270,1,13,dAdV,30,0.89,1,4,Young,204,225,22,804.7,321.6,885.1,307.6,1.54,134
271,1,13,dAdV,31,4.219,0,4,Young,431,545,115,869,292.5,875,734.2,10.87,240
272,1,13,dAdV,32,0.976,1,3,Young,554,564,11,861.8,709.5,866.9,677.5,0.77,96
273,1,14,dAV,17,2.36,1,0,Young,600,663,64,874.9,634.7,856.5,366.7,6.66,409
274,1,14,dAV,18,0.769,1,0,Young,769,813,45,870.2,346.1,857.6,264,2.11,314
275,1,14,dAV,19,0.635,1,0,Young,376,457,82,865.4,296,856.4,680.7,9.52,277
276,1,14,dAV,20,1.425,1,0,Young,580,648,69,855.3,635.5,837.1,279.9,8.86,499
277,1,14,dAV,21,0.885,1,0,Young,216,267,52,947.2,362.7,915,256.8,2.77,224
278,1,14,dAV,22,4.199,1,0,Young,390,626,237,914.3,249.5,980,671.3,10.55,275
279,1,14,dAV,23,1.027,1,0,Young,671,761,91,952.8,612.4,955.9,311.4,7.52,261
280,1,14,dAV,24,1.305,1,0,Young,461,511,51,813.2,280.5,893.6,375.6,2.85,182
281,1,14,dAV,25,4.094,0,0,Young,590,614,25,899.8,387.4,873.3,293.2,2.45,222
282,1,14,dAV,26,2.695,1,0,Young,712,737,26,874.6,309.8,845.9,242.4,1.81,200
283,1,14,dAV,27,0.969,1,0,Young,952,1133,182,846.5,259.7,942,823.1,13.82,342
284,1,14,dAV,28,1.918,1,0,Young,331,378,48,823.2,235.8,876.6,310.3,2.15,218
285,1,14,dAV,29,0.634,1,0,Young,449,544,96,884.9,343.6,882.6,345,0.06,210
286,1,14,dAV,30,2.008,1,0,Young,175,228,54,856.1,258.9,1069.9,321.6,4.29,375
287,1,14,dAV,31,7.222,0,0,Young,347,392,46,1080.9,338.3,906.6,272.9,3.65,241
288,1,14,dAV,32,0.881,1,0,Young,595,627,33,894.9,297.6,875.4,459.3,4.11,214
289,1,15,dA,17,3.127,0,0,Young,743,765,23,882.6,479.2,862,414,1.68,159
290,1,15,dA,18,1.664,1,0,Young,915,969,55,873.5,424.1,842.2,303,3.13,219
291,1,15,dA,19,9.676,0,0,Young,331,354,24,806.9,219.3,878.4,292.8,2.31,178
292,1,15,dA,20,0.813,1,0,Young,597,673,77,869.3,323,871.2,688,9.02,222
293,1,15,dA,21,0.784,1,0,Young,700,802,103,872.8,690.7,839.1,349,8.45,277
294,1,15,dA,22,0.857,1,0,Young,834,873,40,847.7,343.7,841.5,285.4,1.49,255
295,1,15,dA,23,1.612,0,0,Young,171,231,61,799,387.7,755.6,172.3,5.56,434
296,1,15,dA,24,1.128,1,0,Young,543,693,151,744.3,182.2,812.1,544.5,9.22,264
297,1,15,dA,25,1.274,0,0,Young,789,866,78,829.9,525,803.6,129.7,10.01,548
298,1,15,dA,26,5.331,0,0,Young,424,535,112,797.3,251.7,846.3,680.5,10.66,226
299,1,15,dA,27,0.785,1,0,Young,594,667,74,853.5,658.7,778,219.5,11.01,608
300,1,15,dA,28,1.389,0,0,Young,184,237,54,969.7,401.8,842.8,243.8,4.67,339
301,1,15,dA,29,1.19,0,0,Young,497,590,94,837.3,234,818.2,603.7,9.26,222
302,1,15,dA,30,0.821,1,0,Young,663,740,78,829.6,604.9,805.1,228.2,9.44,480
303,1,15,dA,31,0.794,1,0,Young,-58,112,171,812.9,237,830.8,285.9,1.3,336
304,1,15,dA,32,6.414,0,0,Young,244,281,38,835.4,305.4,925.7,322.7,1.74,176
305,1,16,dV,17,1,0,3,Young,649,680,32,943.3,289.6,941.8,266.4,0.6,138
306,1,16,dV,18,1.159,0,1,Young,101,122,22,989.4,366.7,917.4,369.6,1.34,104
307,1,16,dV,19,4.489,0,1,Young,245,297,53,936,372.9,873.6,217.3,4.15,387
308,1,16,dV,20,6.301,0,1,Young,157,231,75,416.7,10.9,866.1,263.8,10.49,573
309,1,16,dV,21,1.878,1,4,Young,533,556,24,865.5,264.7,902.2,210.2,1.56,131
310,1,16,dV,22,1.972,1,2,Young,140,181,42,766.8,214.2,872.8,255.8,2.25,303
311,1,16,dV,23,1.01,1,3,Young,664,682,19,894.5,270.6,925.7,253.9,0.72,78
312,1,16,dV,24,3.236,1,3,Young,968,978,11,909.8,244.4,877.5,229.6,0.71,75
313,1,16,dV,25,1.185,1,4,Young,222,245,24,816.9,246.9,830.7,292.9,1.21,119
314,1,16,dV,26,2.562,0,4,Young,729,745,17,832.5,291.7,877.2,285.4,0.85,82
315,1,16,dV,27,0.678,1,2,Young,59,84,26,777.7,249.5,825.6,272,1.06,101
316,1,16,dV,28,4.105,0,3,Young,277,309,33,827.4,268.9,848.1,313.6,1.21,166
317,1,16,dV,29,1.343,0,1,Young,781,817,37,855.7,317.2,845.2,289.9,0.72,149
318,1,16,dV,30,2.708,1,4,Young,-93,140,234,777.7,277,813.2,254.8,0.87,542
319,1,16,dV,31,0.981,1,2,Young,692,744,53,827.8,278.1,872.3,259.1,0.96,129
320,1,16,dV,32,1.073,1,3,Young,-4,183,188,1090,318.4,814.3,315.5,5.13,359
321,1,17,A,33,2.208,0,0,Young,330,389,60,815.8,300.2,820,174.7,3.22,323
322,1,17,A,34,0.614,0,0,Young,736,761,26,812.3,184.6,819.7,227.4,1.11,132
323,1,17,A,35,0.923,0,0,Young,159,194,36,806.1,230,846.6,294.3,1.81,217
324,1,17,A,36,5.499,0,0,Young,516,537,22,874.9,309.3,923.9,277.2,1.23,126
325,1,17,A,37,0.982,1,0,Young,198,268,71,438.1,22.2,880.3,231.9,9.76,514
326,1,17,A,38,1.461,1,0,Young,610,632,23,872.5,239.6,911.9,239.8,0.74,76
327,1,17,A,39,4.488,1,0,Young,872,884,13,908.5,238.7,875,251.8,0.71,70
328,1,17,A,40,2.59,0,0,Young,91,115,25,829.1,268.9,728.5,292.8,1.97,165
329,1,17,A,41,4.418,0,0,Young,212,253,42,742,291.4,836.1,309,1.8,239
330,1,17,A,42,2.959,0,0,Young,512,522,11,873.3,304.6,843.8,295.4,0.6,66
331,1,17,A,43,7.925,0,0,Young,801,822,22,863.3,279.5,905.6,249.3,1.11,107
332,1,17,A,44,1.069,1,0,Young,91,114,24,820.8,266.5,767.6,338.2,2.08,173
333,1,17,A,45,3.467,0,0,Young,206,257,52,767.4,331.6,881.4,209.7,3.77,350
334,1,17,A,46,0.696,0,0,Young,458,492,35,888.8,222.1,870.3,253.2,0.87,155
335,1,17,A,47,0.597,1,0,Young,910,930,21,853.1,239.9,848.7,188.4,1.33,134
336,1,17,A,48,4.614,0,0,Young,76,212,137,838.3,145.2,790.3,324,4.68,566
337,1,18,AdV,33,0.875,1,2,Young,653,658,6,787.3,287.1,777.2,279.1,0.28,58
338,1,18,AdV,34,0.754,0,2,Young,837,842,6,779.3,280,781.2,294,0.36,58
339,1,18,AdV,35,4.539,0,4,Young,941,981,41,780.8,293.8,796.3,263.7,0.82,118
340,1,18,AdV,36,0.978,0,3,Young,213,253,41,791.7,266.9,875.5,231.1,1.81,210
341,1,18,AdV,37,1.44,1,2,Young,700,722,23,903.3,230.7,952.3,227.2,0.92,114
342,1,18,AdV,38,0.906,1,1,Young,229,302,74,424.6,-26.2,869,168.6,9.59,386
343,1,18,AdV,39,0.81,1,1,Young,541,592,52,861.8,155.4,910.9,185.5,1.2,139
344,1,18,AdV,40,2.884,1,2,Young,957,973,17,940,174.1,974.8,140.3,1.09,126
345,1,18,AdV,41,1.994,1,2,Young,156,215,60,873.2,504.6,913.1,286.5,5.56,404
346,1,18,AdV,42,0.837,1,2,Young,519,558,40,914.5,259.4,907.1,235.4,0.63,108
347,1,18,AdV,43,0.887,1,1,Young,189,243,55,977.8,431.6,853.6,240.2,5.39,380
348,1,18,AdV,44,3.751,0,4,Young,943,953,11,844.8,224.6,817.5,228.6,0.52,58
349,1,18,AdV,45,4.457,1,4,Young,165,213,49,731.1,300.2,869.8,250.5,2.88,289
350,1,18,AdV,46,0.854,1,3,Young,626,634,9,893,252.3,894.9,234.4,0.46,58
351,1,18,AdV,47,1.039,1,4,Young,85,105,21,832,219.7,773.7,230.4,1.12,93
352,1,18,AdV,48,0.789,0,3,Young,366,384,19,783.4,226.7,733.5,203.6,1.1,101
353,1,19,V,33,6.242,1,0,Young,61,116,56,817.6,215.6,998.7,390.5,5.59,363
354,1,19,V,34,0.648,1,0,Young,267,325,59,1017.8,403,787,252,5.76,422
355,1,19,V,35,0.931,1,0,Young,374,384,11,836.7,217.4,825.2,239.7,0.61,73
356,1,19,V,36,3.019,1,0,Young,11,54,44,275,1201.3,256.8,1292.2,1.82,178
357,1,19,V,37,0.595,1,0,Young,212,301,90,266.4,1317.1,770.2,358,22.73,779
358,1,19,V,38,0.632,1,0,Young,360,426,67,778.6,389.4,789.7,214.5,4.47,440
359,1,19,V,39,0.829,1,0,Young,562,596,35,790.1,219.1,764.1,249.7,0.92,113
360,1,19,V,40,1.564,1,0,Young,971,1003,33,750.1,257.4,697.2,260,0.98,120
361,1,19,V,41,1.001,1,0,Young,153,203,51,760.5,266.6,937.7,277.1,3.31,214
362,1,19,V,42,1.824,1,0,Young,398,428,31,961.4,268.3,992.4,257.3,0.64,131
363,1,19,V,43,0.738,1,0,Young,228,250,23,810.4,262.9,722.2,210,2.13,200
364,1,19,V,44,0.763,1,0,Young,253,286,34,840.6,223.2,829.8,249.1,0.7,147
365,1,19,V,45,3.592,1,0,Young,834,852,19,865.6,276.1,911.2,248.9,1.1,122
366,1,19,V,46,0.63,1,0,Young,270,294,25,790.1,254.9,880.1,250.2,1.68,170
367,1,19,V,47,1.372,0,0,Young,103,145,43,816.5,219.4,860.9,239.1,0.97,97
368,1,19,V,48,0.747,0,0,Young,253,267,15,871.8,251,870.8,249.1,0.05,59
369,1,20,dAV,33,1.81,1,0,Young,468,490,23,884.4,251.6,845.2,215.6,1.18,155
370,1,20,dAV,34,7.357,0,0,Young,137,184,48,782.5,223.8,917.1,267.5,2.75,260
371,1,20,dAV,35,2.608,0,0,Young,479,502,24,944.8,263.4,968.5,216.1,1.29,154
372,1,20,dAV,36,2.314,1,0,Young,169,206,38,774.5,272.3,856.2,218.3,2.06,199
373,1,20,dAV,37,2.32,0,0,Young,692,704,13,876.4,208,906.4,236.9,0.93,89
374,1,20,dAV,38,0.747,0,0,Young,-52,103,156,896.3,146.3,826.8,198.3,1.87,521
375,1,20,dAV,39,1.057,0,0,Young,264,298,35,832.9,205.8,847.2,245.5,1.06,202
376,1,20,dAV,40,9.677,0,0,Young,681,708,28,854.2,240.1,854.1,310.7,1.81,121
377,1,20,dAV,41,0.72,1,0,Young,228,251,24,837.7,246.7,915.3,260.5,1.49,121
378,1,20,dAV,42,0.732,1,0,Young,2,171,170,832.6,237.2,804.5,270.1,0.99,513
379,1,20,dAV,43,0.785,1,0,Young,340,368,29,815.9,269.8,867.7,235.1,1.31,154
380,1,20,dAV,44,0.55,1,0,Young,33,112,80,219.9,1454.6,792.1,444,23.44,790
381,1,20,dAV,45,0.972,0,0,Young,232,279,48,810.8,417.4,877.7,304.2,3.13,306
382,1,20,dAV,46,0.669,1,0,Young,186,220,35,821.7,245.3,883,234.3,1.18,172
383,1,20,dAV,47,1.497,1,0,Young,810,825,16,878,237.5,917.1,222.9,0.82,74
384,1,20,dAV,48,1.411,1,0,Young,157,205,49,792.9,288.5,952.3,303.3,2.99,235
385,1,21,AV,33,0.676,1,0,Young,792,798,7,977,289.9,959.8,286,0.34,53
386,1,21,AV,34,0.813,1,0,Young,352,374,23,871.3,285.4,924.2,272.1,1.04,98
387,1,21,AV,35,0.772,1,0,Young,741,756,16,915.1,276.5,900.9,244.5,0.86,75
388,1,21,AV,36,1.008,1,0,Young,944,962,19,905.5,257.4,924.4,246.5,0.45,76
389,1,21,AV,37,1.585,1,0,Young,88,121,34,859.2,319.9,941.9,356.8,1.8,112
390,1,21,AV,38,2.966,1,0,Young,260,295,36,943,346.6,945.9,299.4,1.21,194
391,1,21,AV,39,0.563,1,0,Young,590,602,13,950.6,281.2,914.9,271.5,0.71,68
392,1,21,AV,40,0.669,1,0,Young,221,234,14,858.4,249.6,833.5,276.4,0.83,72
393,1,21,AV,41,0.801,1,0,Young,846,861,16,886.7,268.3,925.1,262.8,0.73,71
394,1,21,AV,42,0.884,1,0,Young,-83,19,103,1044,862.8,351.4,1457.5,16.62,376
395,1,21,AV,43,1.371,1,0,Young,236,331,96,332.8,1479,900.4,424.8,24.21,864
396,1,21,AV,44,1.145,1,0,Young,400,459,60,909.4,451.4,918.8,281.2,4.32,456
397,1,21,AV,45,0.656,1,0,Young,218,242,25,842.2,268.3,883.5,307.4,1.26,146
398,1,21,AV,46,8.493,0,0,Young,561,584,24,895.1,309.3,897.3,372.6,1.61,118
399,1,21,AV,47,0.814,1,0,Young,843,865,23,904.5,360.2,902.8,293.7,1.7,168
400,1,21,AV,48,0.909,1,0,Young,139,188,50,853.7,265.8,963.1,318.7,2.45,266
401,1,22,dV,33,1.016,1,2,Young,276,311,36,982.6,334.3,968.2,298.8,0.95,186
402,1,22,dV,34,3.119,1,1,Young,564,592,29,972.5,280.2,1003.1,253.3,0.9,141
403,1,22,dV,35,1.009,1,2,Young,832,862,31,1004.2,252.3,973.7,258,0.59,107
404,1,22,dV,36,0.567,1,4,Young,151,195,45,786.5,292.5,933.8,258.5,2.88,283
405,1,22,dV,37,4.275,0,4,Young,641,646,6,927.5,255.8,913.2,256,0.27,52
406,1,22,dV,38,0.878,1,3,Young,6,189,184,853.4,237.8,819.1,239.6,0.64,710
407,1,22,dV,39,2.813,1,2,Young,334,370,37,830.4,256,854.9,270.5,0.59,190
408,1,22,dV,40,1.999,1,4,Young,638,642,5,869.6,310.6,870,298.7,0.3,40
409,1,22,dV,41,2.103,0,3,Young,456,486,31,851.6,291.6,854.7,244.5,1.21,192
410,1,22,dV,42,1.161,1,1,Young,42,229,188,923.7,462.1,830,321.4,3.96,375
411,1,22,dV,43,0.876,1,2,Young,345,388,44,844.4,334.1,833.4,279.4,1.41,230
412,1,22,dV,44,3.623,1,1,Young,926,941,16,832.3,268.7,787.3,269.1,0.84,70
413,1,22,dV,45,3.078,0,2,Young,284,309,26,830.5,280.8,896.4,214.1,2.11,180
414,1,22,dV,46,0.861,1,1,Young,570,587,18,874.9,215.4,848.7,211.4,0.5,64
415,1,22,dV,47,3.521,1,2,Young,-20,218,239,798.1,198.8,876.5,287.3,2.7,689
416,1,22,dV,48,0.936,1,2,Young,389,426,38,884.5,276.2,881.2,242.9,0.86,143
417,1,23,dAdV,33,2.152,0,4,Young,729,734,6,869.2,233.8,854.8,226.9,0.32,50
418,1,23,dAdV,34,0.875,1,2,Young,0,177,178,832.8,286.5,867.4,294.4,0.68,663
419,1,23,dAdV,35,0.797,1,1,Young,293,339,47,878.4,287.4,894,362.7,1.94,232
420,1,23,dAdV,36,0.85,0,1,Young,610,660,51,905.9,372.7,948.6,490.9,3.08,276
421,1,23,dAdV,37,2.364,0,2,Young,682,739,58,960.2,518.3,957.7,667.3,3.64,356
422,1,23,dAdV,38,0.687,1,4,Young,780,845,66,963.7,666.9,921.7,341.6,8.09,570
423,1,23,dAdV,39,0.705,1,2,Young,377,530,154,825.2,300.8,824.9,332.8,0.82,696
424,1,23,dAdV,40,2.667,1,3,Young,845,1036,192,827.7,330.4,853.6,733.9,9.93,344
425,1,23,dAdV,41,0.829,1,2,Young,171,232,62,999.7,439.2,810.5,284.4,5.26,373
426,1,23,dAdV,42,0.613,1,2,Young,567,668,102,818.6,268.6,861.3,629.4,9.03,190
427,1,23,dAdV,43,2.979,0,2,Young,807,880,74,853.7,622.8,816,279.1,8.61,466
428,1,23,dAdV,44,0.659,1,1,Young,191,247,57,832.2,288.3,973.3,434.7,4.55,375
429,1,23,dAdV,45,2.865,0,4,Young,409,464,56,985.4,446.2,880.4,298.9,4.21,358
430,1,23,dAdV,46,0.812,1,2,Young,681,822,142,879.1,302.1,972.7,935.1,15.2,321
431,1,23,dAdV,47,0.709,1,4,Young,947,1027,81,964.4,884,881.4,256.9,15.2,724
432,1,23,dAdV,48,1.463,0,3,Young,431,510,80,841.5,265.2,872.2,651.2,9.62,322
433,1,24,dA,33,3.782,1,0,Young,628,705,78,872.2,667,822.2,247.5,10.48,589
434,1,24,dA,34,0.954,1,0,Young,61,126,66,827.9,695.9,827,364.9,8.15,386
435,1,24,dA,35,5.457,1,0,Young,287,347,61,836.5,361.1,881.7,229.8,3.46,330
436,1,24,dA,36,5.564,0,0,Young,868,886,19,897.7,245.3,850.3,262.5,0.99,90
437,1,24,dA,37,7.455,0,0,Young,218,261,44,879,329.4,974.8,324.8,1.78,184
438,1,24,dA,38,0.751,0,0,Young,708,727,20,998.7,292.6,957.4,292,0.77,80
439,1,24,dA,39,3.947,1,0,Young,40,62,23,910.7,263.4,840.7,268.1,1.31,107
440,1,24,dA,40,8.801,1,0,Young,416,484,69,844,301,961.3,554.4,6.72,316
441,1,24,dA,41,10.907,0,0,Young,618,686,69,961.7,553.2,933,254.1,7.55,564
442,1,24,dA,42,0.753,1,0,Young,99,148,50,896.6,507.6,1027,453.7,2.75,247
443,1,24,dA,43,4.281,0,0,Young,239,293,55,1051,440.7,886.4,290.7,4.88,397
444,1,24,dA,44,0.817,1,0,Young,590,631,42,881,289.3,908.3,516.1,5.74,210
445,1,24,dA,45,0.683,0,0,Young,713,763,51,901.3,573.2,891.1,707.5,3.26,250
446,1,24,dA,46,0.783,1,0,Young,864,940,77,890.4,733.6,891.6,263.4,11.58,593
447,1,24,dA,47,0.695,1,0,Young,78,156,79,806.2,241.3,765,663.5,10.52,301
448,1,24,dA,48,2.509,0,0,Young,292,363,72,773.2,652.9,911.9,226.7,10.9,574
449,1,25,AdV,49,1.356,1,3,Young,656,706,51,909.3,235,883.7,358.3,3.19,236
450,1,25,AdV,50,2.154,0,1,Young,889,944,56,883.9,385,880.2,233.7,3.86,410
451,1,25,AdV,51,0.837,0,2,Young,46,104,59,818.1,246.9,907.8,407.4,4.42,226
452,1,25,AdV,52,0.972,1,4,Young,270,314,45,907.2,421.8,906.7,334.1,2.22,294
453,1,25,AdV,53,3.565,0,2,Young,55,111,57,818.8,218.2,879.1,349.3,3.54,205
454,1,25,AdV,54,0.948,1,1,Young,272,306,35,886.8,376,860.1,317,1.58,226
455,1,25,AdV,55,2.467,1,1,Young,990,1012,23,882.2,301.3,890.8,270,0.82,92
456,1,25,AdV,56,7.134,0,1,Young,-88,3,92,871.1,384.2,360.9,1291.6,21.85,420
457,1,25,AdV,57,1.107,1,2,Young,153,191,39,353.7,1331.5,324.2,1384.9,1.12,159
458,1,25,AdV,58,0.774,1,3,Young,342,462,121,307.5,1405.7,940.4,227.3,27.7,800
459,1,25,AdV,59,1.017,1,1,Young,913,966,54,918,235.6,879.6,349.6,3,134
460,1,25,AdV,60,0.602,1,1,Young,194,251,58,807.9,225.6,927,337.6,3.62,293
461,1,25,AdV,61,4.145,1,3,Young,361,503,143,930.7,339,900.6,257.3,2.17,344
462,1,25,AdV,62,0.676,0,4,Young,726,952,227,917.4,253.6,990.1,273.4,1.45,395
463,1,25,AdV,63,1.4,1,3,Young,978,982,5,994.7,278.2,998.4,271.7,0.18,58
464,1,25,AdV,64,0.891,1,2,Young,181,214,34,820,460.7,927.8,292.9,4.69,308
465,1,26,dAV,49,1.242,1,0,Young,815,890,76,931,267.8,945.9,464.3,4.99,271
466,1,26,dAV,50,0.93,1,0,Young,320,381,62,830.2,223.1,885.9,426.5,5.28,235
467,1,26,dAV,51,0.586,1,0,Young,559,624,66,895.2,429.7,817.8,195.7,6.13,398
468,1,26,dAV,52,1.206,0,0,Young,120,169,50,829.6,181.9,873.8,319.3,3.62,236
469,1,26,dAV,53,1.109,1,0,Young,345,389,45,893.3,336.9,863.8,248.2,2.34,286
470,1,26,dAV,54,0.961,1,0,Young,636,865,230,883.2,241.6,937.1,283.4,1.47,318
471,1,26,dAV,55,1.624,1,0,Young,38,58,21,1113.7,428,1178.7,479.5,1.76,143
472,1,26,dAV,56,3.246,0,0,Young,219,286,68,1169.7,476.1,899.2,253.6,7.53,425
473,1,26,dAV,57,0.849,1,0,Young,578,663,86,900.2,262.3,877,509.2,6.25,185
474,1,26,dAV,58,0.936,0,0,Young,752,811,60,888.1,509,865.2,266.3,6.14,411
475,1,26,dAV,59,0.748,1,0,Young,327,345,19,840.7,304.9,894.4,306.6,1,103
476,1,26,dAV,60,0.684,1,0,Young,-32,19,52,708.3,499.3,632.8,643.8,3.79,241
477,1,26,dAV,61,0.72,1,0,Young,260,333,74,640.1,683.5,800,292.7,10.08,480
478,1,26,dAV,62,0.976,1,0,Young,860,983,124,812.1,296,829.9,737.4,10.85,183
479,1,26,dAV,63,0.719,1,0,Young,16,169,154,816.3,509.8,757.4,469.7,1.47,280
480,1,26,dAV,64,0.605,1,0,Young,352,399,48,769.6,482.7,878.7,309.2,4.82,348
481,1,27,A,49,2.087,0,0,Young,827,882,56,894.4,293.4,822.3,486.9,5.06,257
482,1,27,A,50,1.322,0,0,Young,307,370,64,876.1,257.6,910.9,618.8,9.04,355
483,1,27,A,51,1.978,1,0,Young,517,586,70,916.9,645.8,905.2,241.2,10.09,552
484,1,27,A,52,0.894,1,0,Young,176,273,98,250.3,1436.2,912,413,24.47,762
485,1,27,A,53,3.056,1,0,Young,378,432,55,920.5,414,882,326.8,2.33,234
486,1,27,A,54,0.848,1,0,Young,10,62,53,869.6,532.9,859.6,409.4,3.09,238
487,1,27,A,55,7.502,0,0,Young,305,328,24,864.1,375.6,864,256.2,3.05,289
488,1,27,A,56,0.78,1,0,Young,919,981,63,875.6,289.3,871.4,500.1,5.32,248
489,1,27,A,57,1.682,1,0,Young,81,105,25,905.5,233,795.2,202.4,2.2,159
490,1,27,A,58,3.107,0,0,Young,339,363,25,807.7,222.9,922.3,228.9,2.15,189
491,1,27,A,59,2.18,1,0,Young,604,637,34,925.9,235.3,885.1,335.9,2.69,221
492,1,27,A,60,0.645,0,0,Young,974,1026,53,878.8,326.3,878,241.2,2.18,183
493,1,27,A,61,2.179,0,0,Young,397,452,56,830.7,284.9,841.8,433.5,3.77,212
494,1,27,A,62,0.592,1,0,Young,619,668,50,847.4,458,849.1,352.2,2.67,310
495,1,27,A,63,2.143,0,0,Young,72,178,107,872.6,255.8,374.4,1388.7,26.07,479
496,1,27,A,64,0.886,1,0,Young,389,481,93,386,1378.1,928.1,260,26.1,953
497,1,28,dV,49,1.884,1,4,Young,194,241,48,1052.8,385.5,876.8,255.3,4.66,356
498,1,28,dV,50,0.652,1,4,Young,191,244,54,1079,416.6,897.4,256.4,5.29,344
499,1,28,dV,51,1.328,1,2,Young,608,624,17,836,326.8,789.5,338,0.91,84
500,1,28,dV,52,0.86,1,3,Young,856,876,21,806.2,343.3,822.1,391.9,1.27,106
501,1,28,dV,53,0.856,1,4,Young,76,154,79,266.9,1440.1,886.6,356.4,25.41,607
502,1,28,dV,54,3.434,0,4,Young,385,428,44,904.8,342.4,895.7,288.4,1.39,182
503,1,28,dV,55,0.903,1,1,Young,986,1007,22,901.4,264.3,951.3,317.9,1.66,118
504,1,28,dV,56,0.778,1,3,Young,52,114,63,863.3,228.1,1159.4,326.7,6.05,267
505,1,28,dV,57,0.683,1,4,Young,197,249,53,1181.1,336.7,922.4,276.4,5.04,304
506,1,28,dV,58,1.429,1,2,Young,582,601,20,897.7,291.9,895.1,290,0.07,55
507,1,28,dV,59,0.736,1,1,Young,685,703,19,892.2,292.6,870,322.8,0.88,77
508,1,28,dV,60,0.647,1,3,Young,210,247,38,854.1,278,887.6,231.8,1.34,256
509,1,28,dV,61,0.9,1,2,Young,35,57,23,830.6,250.6,921,244.9,1.69,144
510,1,28,dV,62,4.145,0,4,Young,223,267,45,905,248,911.1,309.8,1.59,178
511,1,28,dV,63,0.602,1,1,Young,649,666,18,919.5,337.6,931.3,373.9,0.95,88
512,1,28,dV,64,0.893,1,1,Young,244,269,26,882.9,329.6,950.5,278.2,1.82,197
513,1,29,V,49,1.148,1,0,Young,676,691,16,938.6,275.8,926.8,309.8,0.9,65
514,1,29,V,50,1.415,1,0,Young,72,90,19,874.1,275,802.6,274.8,1.33,108
515,1,29,V,51,0.722,1,0,Young,514,523,10,820.9,294.8,830.3,279,0.44,57
516,1,29,V,52,5.36,0,0,Young,26,47,22,406.1,1310,401.1,1389.9,1.53,147
517,1,29,V,53,3.493,0,0,Young,301,405,105,397.8,1378.1,809.5,256.4,25.45,809
518,1,29,V,54,0.749,1,0,Young,707,735,29,808.2,256.6,779.2,248.1,0.58,111
519,1,29,V,55,1.568,1,0,Young,228,249,22,877.9,222.1,920.4,259.2,1.24,109
520,1,29,V,56,0.749,1,0,Young,592,600,9,902.1,265.4,879.1,267.5,0.43,54
521,1,29,V,57,1.172,1,0,Young,-34,25,60,850,74,880.2,249.4,4.56,198
522,1,29,V,58,1.196,0,0,Young,169,217,49,876.9,290.7,982.3,348.9,2.46,245
523,1,29,V,59,0.917,1,0,Young,476,512,37,964.9,366,939.6,367.6,0.47,78
524,1,29,V,60,0.91,0,0,Young,949,967,19,928.2,364.1,958.4,352.2,0.64,77
525,1,29,V,61,0.678,1,0,Young,77,94,18,893.3,231.7,832.7,251.8,1.24,95
526,1,29,V,62,0.747,1,0,Young,381,404,24,847,250.2,912.2,261.1,1.25,125
527,1,29,V,63,0.747,1,0,Young,608,633,26,856.5,240.1,922.4,230.6,1.25,125
528,1,29,V,64,0.952,0,0,Young,61,102,42,833.8,163.5,826.4,86.1,2,118
529,1,30,dA,49,0.78,1,0,Young,218,261,44,818.3,99.3,739.1,141,1.83,230
530,1,30,dA,50,0.892,1,0,Young,-13,3,17,861.3,232.9,815.7,240,0.87,86
531,1,30,dA,51,0.863,1,0,Young,201,237,37,827.8,230.5,869.6,242.2,0.84,168
532,1,30,dA,52,3.276,1,0,Young,935,953,19,894.4,255.9,926.9,275.2,0.78,88
533,1,30,dA,53,0.927,0,0,Young,180,199,20,878.9,279.1,950.6,283.7,1.34,105
534,1,30,dA,54,5.567,0,0,Young,667,679,13,923.3,289.7,960,284.3,0.7,72
535,1,30,dA,55,0.625,1,0,Young,47,109,63,799.3,305.7,714.8,461.3,4.23,216
536,1,30,dA,56,3.218,0,0,Young,270,339,70,702.6,475.8,894.3,241.8,6.9,409
537,1,30,dA,57,1.074,1,0,Young,793,822,30,884.8,247.4,911.8,246.1,0.5,114
538,1,30,dA,58,2.168,1,0,Young,-87,151,239,814.5,230.1,810.5,227.4,0.1,388
539,1,30,dA,59,0.967,1,0,Young,253,280,28,818.5,241.8,884.8,303.8,2.01,202
540,1,30,dA,60,3.057,1,0,Young,169,203,35,794.8,187.9,851.9,277,2.53,283
541,1,30,dA,61,1.638,1,0,Young,541,555,15,866.2,277.2,845.3,247.8,0.85,90
542,1,30,dA,62,0.72,1,0,Young,915,920,6,845.5,260,834.9,257.2,0.21,41
543,1,30,dA,63,5.397,1,0,Young,229,335,107,341.5,1531.5,908.3,386.8,25.75,970
544,1,30,dA,64,1,0,0,Young,527,558,32,918.5,383.1,901.7,323.5,1.55,230
545,1,31,AV,49,0.819,1,0,Young,855,914,60,909.1,316.5,916.2,703,9.53,293
546,1,31,AV,50,1.631,1,0,Young,57,127,71,893.9,338.6,944.4,653.4,7.87,262
547,1,31,AV,51,0.905,1,0,Young,280,352,73,959.4,675.1,920.4,231,11.06,621
548,1,31,AV,52,3.643,0,0,Young,623,723,101,925.3,254.5,937,542.1,7.25,271
549,1,31,AV,53,0.796,1,0,Young,771,826,56,940.3,557.1,915.7,290.5,6.71,446
550,1,31,AV,54,0.875,0,0,Young,383,441,59,851.2,293.9,885.2,479.9,4.74,292
551,1,31,AV,55,0.604,0,0,Young,540,613,74,892.9,499.5,857.8,236.9,6.67,333
552,1,31,AV,56,0.816,1,0,Young,95,130,36,826,306.3,936.8,324.6,2.11,144
553,1,31,AV,57,0.697,1,0,Young,325,349,25,935.6,327.1,825.1,298.6,2.18,187
554,1,31,AV,58,2.612,0,0,Young,785,850,66,847.9,310.9,909.8,425.6,3.13,120
555,1,31,AV,59,0.555,1,0,Young,960,988,29,869.9,418.5,861.4,313.5,2.67,206
556,1,31,AV,60,1.988,1,0,Young,-20,22,43,854.4,249.7,931.8,334.1,2.6,142
557,1,31,AV,61,1.758,1,0,Young,223,272,50,942,332.5,887.6,238.1,2.62,262
558,1,31,AV,62,0.943,1,0,Young,578,606,29,885.5,248.5,871.7,392.2,3.67,219
559,1,31,AV,63,0.639,1,0,Young,761,809,49,874.1,426.6,864.9,327.4,2.52,213
560,1,31,AV,64,0.829,1,0,Young,-3,16,20,806.9,230.4,883,265.3,1.68,151
561,1,32,dAdV,49,0.884,1,2,Young,353,433,81,884.8,262.8,904.6,736.1,11.66,410
562,1,32,dAdV,50,0.559,1,2,Young,531,605,75,912.1,715.2,868.5,276.8,10.85,509
563,1,32,dAdV,51,1.616,1,2,Young,823,864,42,885.5,288.7,903.7,232.3,1.49,267
564,1,32,dAdV,52,0.78,1,3,Young,194,255,62,809,239.1,938.4,349.1,3.7,304
565,1,32,dAdV,53,0.775,1,1,Young,463,518,56,945.4,336.7,903,248.6,2.39,220
566,1,32,dAdV,54,0.731,0,2,Young,715,778,64,900.9,256.9,952.3,439.1,4.73,276
567,1,32,dAdV,55,0.957,0,1,Young,929,977,49,955.6,431.2,935.7,280.7,3.84,355
568,1,32,dAdV,56,0.954,1,1,Young,176,238,63,861.8,499,825,252.3,6.27,511
569,1,32,dAdV,57,2.826,0,3,Young,788,806,19,871.7,285.5,938,275.9,1.26,108
570,1,32,dAdV,58,2.214,0,2,Young,188,234,47,770.1,360.7,906.9,284.1,3.2,243
571,1,32,dAdV,59,1.474,1,1,Young,567,645,79,929.9,275.3,959.6,814.4,13.14,300
572,1,32,dAdV,60,0.94,1,3,Young,742,823,82,961.1,798,927.9,230.8,13.88,576
573,1,32,dAdV,61,4.533,0,4,Young,544,611,68,852.3,284.1,916.8,572.4,7.33,214
574,1,32,dAdV,62,2.118,1,4,Young,719,778,60,925,596.1,895.9,324,6.82,294
575,1,32,dAdV,63,0.615,1,4,Young,239,281,43,965.4,273.2,884,246.9,1.66,164
576,1,32,dAdV,64,0.638,1,3,Young,558,610,53,885.2,248.3,840.3,435.2,4.82,174
577,1,33,dAV,65,0.872,1,0,Young,644,655,12,844.4,472.3,859.4,493.6,0.6,62
578,1,33,dAV,66,0.553,0,0,Young,715,772,58,857.6,482.2,864.9,277.5,5.18,298
579,1,33,dAV,67,0.635,1,0,Young,231,274,44,830,357.4,928.7,321.7,2.05,281
580,1,33,dAV,68,2.436,0,0,Young,647,763,117,951.5,317.9,1009.2,800.7,11.81,304
581,1,33,dAV,69,0.936,1,0,Young,830,907,78,970.1,782.1,936.1,348.5,10.59,534
582,1,33,dAV,70,3.668,1,0,Young,230,277,48,828.6,254.1,851.5,324.4,1.85,212
583,1,33,dAV,71,0.784,1,0,Young,441,466,26,861.9,338.5,777.5,232.1,3.14,250
584,1,33,dAV,72,0.767,1,0,Young,634,702,69,789.3,250.4,889,567.7,8.17,278
585,1,33,dAV,73,0.76,1,0,Young,794,832,39,877.1,619.4,844.9,301.9,7.94,384
586,1,33,dAV,74,1.313,0,0,Young,219,271,53,830.6,258.3,934.7,347.3,2.99,279
587,1,33,dAV,75,3.861,0,0,Young,462,503,42,941.3,370.9,904.7,269.6,2.67,302
588,1,33,dAV,76,1.667,1,0,Young,611,699,89,906.3,285.3,958.1,454.1,4.39,161
589,1,33,dAV,77,4.066,1,0,Young,885,944,60,916.6,490.9,896,294.7,4.97,311
590,1,33,dAV,78,0.666,0,0,Young,325,593,269,840.1,266.5,823.8,300.7,0.93,531
591,1,33,dAV,79,1.809,1,0,Young,-17,153,171,842.6,295.6,809.1,268.2,0.94,264
592,1,33,dAV,80,6.59,0,0,Young,241,295,55,816.8,282.1,961.7,322.7,2.89,235
593,1,34,dV,65,3.502,0,3,Young,533,592,60,969.8,337.3,1007.4,675.3,8.39,405
594,1,34,dV,66,1.276,0,2,Young,680,756,77,1004.6,671.2,996.4,332.5,8.39,516
595,1,34,dV,67,0.733,1,2,Young,967,1010,44,999.4,318.9,998.3,244.8,1.9,206
596,1,34,dV,68,0.664,0,3,Young,71,106,36,773.4,238.7,764.6,164.4,1.92,114
597,1,34,dV,69,0.866,1,4,Young,217,264,48,762,168.9,944.7,274.1,4.35,364
598,1,34,dV,70,0.953,1,1,Young,659,705,47,997.4,261.8,968.8,426.1,4.21,186
599,1,34,dV,71,0.981,1,1,Young,822,869,48,973.8,430.4,991.2,291.5,3.54,301
600,1,34,dV,72,0.959,1,1,Young,120,232,113,796.5,232.6,972.2,359.7,4.61,498
601,1,34,dV,73,0.792,0,3,Young,323,349,27,969.2,356.9,865.9,250,3.34,238
602,1,34,dV,74,1.193,1,4,Young,598,638,41,865.7,239.1,840.6,350.6,2.89,196
603,1,34,dV,75,0.945,1,3,Young,786,837,52,840.7,348.6,851.8,266.2,2.11,190
604,1,34,dV,76,1.058,1,1,Young,903,1216,314,847.7,263.5,838.6,351.4,2.25,530
605,1,34,dV,77,0.596,1,3,Young,211,294,84,307.8,1398.2,872.7,369.7,24.16,803
606,1,34,dV,78,0.74,1,4,Young,384,437,54,887.2,347.9,886.4,215.6,3.39,357
607,1,34,dV,79,0.795,1,2,Young,742,788,47,891,229,884.2,317.2,2.26,188
608,1,34,dV,80,1.088,1,3,Young,83,111,29,892.5,359.3,825.2,241.5,3.26,264
609,1,35,AdV,65,0.714,0,3,Young,393,451,59,829.3,251.8,903.6,422.8,4.56,321
610,1,35,AdV,66,1.452,1,2,Young,618,670,53,902.6,426.5,856.8,271,4.04,394
611,1,35,AdV,67,0.781,1,2,Young,877,922,46,863.6,268.2,880,431.4,4.16,247
612,1,35,AdV,68,0.827,1,1,Young,974,1190,217,883.7,413,874.8,324.7,2.25,381
613,1,35,AdV,69,0.61,1,3,Young,433,456,24,817.6,271.1,902.1,333.7,2.24,169
614,1,35,AdV,70,3.774,0,1,Young,575,617,43,908.1,353.3,923.7,508.1,3.9,159
615,1,35,AdV,71,0.585,1,1,Young,644,690,47,888.2,545.2,884,417.9,3.18,160
616,1,35,AdV,72,1.826,1,1,Young,771,1033,263,880,425.9,877.4,300.7,3.18,324
617,1,35,AdV,73,1.263,0,4,Young,61,248,188,781.9,274.2,859.9,366.4,2.76,532
618,1,35,AdV,74,1.258,1,4,Young,825,846,22,853.2,345.5,800.7,293.4,1.65,130
619,1,35,AdV,75,0.495,1,1,Young,211,259,49,887.5,247.8,973.9,292.6,1.98,251
620,1,35,AdV,76,0.671,1,4,Young,479,544,66,985.6,312.1,890.4,701.1,9.76,365
621,1,35,AdV,77,0.534,1,4,Young,705,780,76,891.4,728.2,1037.5,275.3,11.47,485
622,1,35,AdV,78,0.871,1,3,Young,182,236,55,816.8,241.9,966.1,279,2.94,213
623,1,35,AdV,79,0.634,1,3,Young,720,986,267,985.4,283.4,995.5,296.4,0.38,682
624,1,35,AdV,80,0.739,1,3,Young,-28,42,71,837.2,340.3,1090.9,626.7,8.5,199
625,1,36,dA,65,1.182,0,0,Young,206,284,79,1101.4,638,911.9,215.5,11.11,452
626,1,36,dA,66,0.857,1,0,Young,456,480,25,927.1,229.1,825.4,187.4,2.18,178
627,1,36,dA,67,1.813,0,0,Young,628,902,275,847.1,211.4,907.4,236.4,1.3,266
628,1,36,dA,68,0.831,1,0,Young,240,264,25,780.9,200,888.1,199.3,2,179
629,1,36,dA,69,0.943,0,0,Young,485,829,345,871.8,221.2,890.7,352.5,3.38,430
630,1,36,dA,70,4.913,1,0,Young,874,933,60,887,349.8,860.6,218.5,3.4,408
631,1,36,dA,71,1.104,0,0,Young,-11,54,66,783.6,397.7,760.9,163,6,316
632,1,36,dA,72,1.818,0,0,Young,247,294,48,770.6,180.5,853.6,281.8,3.03,333
633,1,36,dA,73,0.745,1,0,Young,555,663,109,870.8,323.7,889.3,745.3,10.35,289
634,1,36,dA,74,1.432,1,0,Young,723,783,61,872.9,722.8,893.4,358.7,8.95,399
635,1,36,dA,75,0.694,1,0,Young,993,1029,37,893.2,333.4,891.2,231.8,2.6,261
636,1,36,dA,76,1.229,0,0,Young,64,104,41,681.6,1239.4,338.4,1368,6.05,358
637,1,36,dA,77,0.899,1,0,Young,195,279,85,319,1389.5,935.3,416.2,23.44,843
638,1,36,dA,78,1.7,1,0,Young,348,408,61,934.4,428.2,943.2,250.1,4.53,396
639,1,36,dA,79,5.693,0,0,Young,718,746,29,943.8,277.3,923.7,402.8,3.22,182
640,1,36,dA,80,1.331,0,0,Young,848,858,11,924.3,488,925.2,470.9,0.43,53
641,1,37,A,65,0.666,1,0,Young,911,970,60,928.6,457.7,912,267.5,4.83,243
642,1,37,A,66,0.65,1,0,Young,135,335,201,839,268,905.8,451.4,4.82,553
643,1,37,A,67,0.711,1,0,Young,481,544,64,906.4,444.4,864,264.5,4.63,366
644,1,37,A,68,1.791,0,0,Young,163,227,65,1667.7,443.8,922.8,322.9,13.78,494
645,1,37,A,69,1.071,1,0,Young,332,375,44,916.7,323.8,885.7,240.8,2.2,277
646,1,37,A,70,0.882,0,0,Young,940,1012,73,875.4,215.3,898.3,412,5.04,245
647,1,37,A,71,0.695,1,0,Young,237,290,54,947.7,376,897.3,251.6,3.31,297
648,1,37,A,72,0.757,1,0,Young,582,774,193,902.4,260.9,914.5,325.3,1.66,380
649,1,37,A,73,0.658,1,0,Young,869,904,36,924.8,337.1,918.3,295.7,1.06,164
650,1,37,A,74,0.709,1,0,Young,81,157,77,840.6,287.7,754.2,658.9,9.35,345
651,1,37,A,75,0.831,1,0,Young,202,268,67,760.5,643.6,906.2,257.7,9.98,561
652,1,37,A,76,0.571,1,0,Young,959,971,13,907.1,247,894.2,223.1,0.66,79
653,1,37,A,77,0.61,1,0,Young,181,221,41,725.1,233.8,838.6,273.4,2.34,240
654,1,37,A,78,0.679,1,0,Young,577,590,14,862.4,267.6,877.2,293.2,0.71,70
655,1,37,A,79,0.921,0,0,Young,-9,53,63,849.1,236,1098.9,181.5,4.87,240
656,1,37,A,80,3.629,0,0,Young,190,224,35,1117.2,182.7,940.2,213.4,3.4,255
657,1,38,dAdV,65,1.931,0,3,Young,529,546,18,926.6,206.1,884.2,195.1,0.84,98
658,1,38,dAdV,66,0.696,1,2,Young,-63,128,192,823.2,275.6,789.9,249.4,0.91,432
659,1,38,dAdV,67,2.869,0,2,Young,223,267,45,804.5,272.6,932.2,317.3,2.64,281
660,1,38,dAdV,68,0.559,1,3,Young,512,548,37,978.2,322.9,972.3,293.1,0.77,158
661,1,38,dAdV,69,0.816,1,4,Young,194,249,56,1074.2,429.8,919.9,261.7,5.14,376
662,1,38,dAdV,70,1.589,0,2,Young,529,564,36,926.2,286,919.1,334.4,1.24,153
663,1,38,dAdV,71,1.082,1,4,Young,199,256,58,1012.1,355.5,869.5,237.7,4.01,268
664,1,38,dAdV,72,1.434,1,1,Young,700,720,21,874,245.8,836.9,253.9,0.72,82
665,1,38,dAdV,73,0.677,1,1,Young,152,178,27,849,216.2,965.3,280.3,2.72,220
666,1,38,dAdV,74,2.741,1,1,Young,711,728,18,943.7,267.1,977.2,243.1,0.88,84
667,1,38,dAdV,75,0.6,1,1,Young,185,246,62,1017.4,356.5,899,215.9,4.22,342
668,1,38,dAdV,76,2.974,0,4,Young,504,519,16,899.7,202.8,861.6,212.8,0.76,66
669,1,38,dAdV,77,0.576,1,2,Young,96,355,260,800,267,833,261.9,0.63,380
670,1,38,dAdV,78,0.556,1,2,Young,453,493,41,831.8,265,861,243.8,0.77,168
671,1,38,dAdV,79,0.941,1,4,Young,765,775,11,867,220.2,837.9,216.1,0.55,58
672,1,38,dAdV,80,0.539,1,2,Young,231,252,22,845.2,238.1,909.2,261.7,1.34,105
673,1,39,V,65,0.624,1,0,Young,585,605,21,892.5,270.2,888.7,337.1,1.71,151
674,1,39,V,66,4.412,1,0,Young,970,994,25,892.2,320.9,871.7,259.1,1.63,173
675,1,39,V,67,0.682,1,0,Young,98,166,69,832.9,184.4,822.4,218.2,0.89,78
676,1,39,V,68,1.406,0,0,Young,216,240,25,818.4,209.3,930,243,2.26,181
677,1,39,V,69,0.77,1,0,Young,656,674,19,916.2,237.6,972.5,215.7,1.19,99
678,1,39,V,70,0.894,1,0,Young,27,47,21,789.1,217.9,832.3,210.9,0.83,87
679,1,39,V,71,0.75,0,0,Young,310,329,20,831,214.4,867.4,253.6,1.22,117
680,1,39,V,72,1.033,0,0,Young,682,700,19,882.1,256.8,942.4,249.7,1.14,105
681,1,39,V,73,0.896,1,0,Young,356,370,15,888,273.6,909.1,304.3,0.88,92
682,1,39,V,74,2.075,1,0,Young,973,991,19,887.7,280.9,921.4,245.5,1.1,100
683,1,39,V,75,0.851,1,0,Young,187,212,26,826,306.2,944.6,250,2.64,234
684,1,39,V,76,2.276,1,0,Young,604,618,15,937.9,271.9,957.5,292.8,0.65,64
685,1,39,V,77,0.617,1,0,Young,319,349,31,822.5,285.9,842.7,222.4,1.67,223
686,1,39,V,78,0.741,1,0,Young,-36,13,50,658.3,172.6,797.7,231.9,3,179
687,1,39,V,79,1.032,1,0,Young,212,236,25,812.5,236.2,870.9,272.9,1.44,142
688,1,39,V,80,0.846,1,0,Young,908,919,12,918.1,264.8,942.6,244.6,0.69,72
689,1,40,AV,65,1.847,1,0,Young,182,252,71,786.8,552.1,916.8,296.4,6.85,430
690,1,40,AV,66,0.711,1,0,Young,702,720,19,898.3,288.9,886.1,259.8,0.78,99
691,1,40,AV,67,1.008,0,0,Young,-41,29,71,268.4,1006.8,371.6,1379,7.68,385
692,1,40,AV,68,0.761,1,0,Young,304,401,98,360.6,1341.5,900.3,279.4,25.1,819
693,1,40,AV,69,1.22,1,0,Young,501,553,53,903.8,285.2,940.4,205.3,2.16,258
694,1,40,AV,70,0.824,1,0,Young,795,817,23,931.2,196.3,893.6,186.7,0.75,88
695,1,40,AV,71,0.792,1,0,Young,3,23,21,257.2,1404.5,295.6,1420.1,0.66,85
696,1,40,AV,72,0.896,1,0,Young,194,293,100,287.3,1417.7,1040.7,345.4,26.32,866
697,1,40,AV,73,0.633,1,0,Young,446,484,39,1022.1,359.1,977.7,331.9,1.08,187
698,1,40,AV,74,1.146,1,0,Young,70,221,152,251.5,1404.4,879.1,378.9,24.47,689
699,1,40,AV,75,0.735,1,0,Young,333,371,39,863.5,374.7,858.4,291.1,2.13,302
700,1,40,AV,76,1.655,1,0,Young,696,702,7,853.9,280.8,840.1,273,0.33,50
701,1,40,AV,77,0.979,1,0,Young,173,201,29,797.2,361.5,853.5,251.7,2.99,226
702,1,40,AV,78,3.146,0,0,Young,899,916,18,864.2,236,909.4,223.8,0.9,76
703,1,40,AV,79,0.74,1,0,Young,174,245,72,892.5,511.6,863.9,213.3,7.57,447
704,1,40,AV,80,0.683,1,0,Young,513,532,20,872.2,209.2,816.7,163.5,1.57,141
705,1,41,dV,81,0.967,0,4,Young,954,962,9,840.1,195.8,829.7,213.3,0.49,60
706,1,41,dV,82,0.637,1,1,Young,95,146,52,370.3,47.5,80.2,60.1,5.14,267
707,1,41,dV,83,0.981,0,4,Young,321,403,83,72.2,57,856.6,223.3,14.68,483
708,1,41,dV,84,1.053,1,2,Young,664,686,23,851,217.7,799.3,222,0.97,103
709,1,41,dV,85,0.974,1,3,Young,936,942,7,803.1,216.2,786,226.9,0.42,56
710,1,41,dV,86,0.847,1,2,Young,116,239,124,253.8,1404,1006.9,304.3,26.94,1001
711,1,41,dV,87,0.809,0,3,Young,531,561,31,1009.5,278.2,1036.8,245.8,0.98,186
712,1,41,dV,88,1.018,0,4,Young,50,112,63,835.5,404.9,817.7,249.3,3.97,304
713,1,41,dV,89,1.291,0,1,Young,373,395,23,810.7,234.5,870.8,223,1.16,114
714,1,41,dV,90,0.852,1,2,Young,172,251,80,867.6,377.7,853.1,212.5,4.23,435
715,1,41,dV,91,1.341,1,1,Young,368,386,19,848.8,206.5,810.2,221.1,0.81,63
716,1,41,dV,92,0.9,0,4,Young,174,236,63,1125.2,431.1,873.5,245.1,6.64,385
717,1,41,dV,93,0.79,0,2,Young,443,459,17,872.3,257.3,814.5,232.4,1.25,105
718,1,41,dV,94,1.113,0,4,Young,878,901,24,829.7,252.9,853.1,340.7,2.28,189
719,1,41,dV,95,1.629,1,1,Young,224,279,56,875.3,265.1,930.3,209.8,1.75,193
720,1,41,dV,96,1.163,1,3,Young,503,533,31,865.7,353.4,855.9,336.7,0.46,117
721,1,42,dA,81,2.941,0,0,Young,27,100,74,869,317,977.2,446.4,3.84,148
722,1,42,dA,82,1.299,1,0,Young,233,281,49,969.9,449.1,927,294.5,4,388
723,1,42,dA,83,2.646,0,0,Young,558,564,7,920.2,274.1,904.8,282.1,0.35,51
724,1,42,dA,84,0.717,1,0,Young,192,237,46,825.8,287.7,932.1,282,1.98,249
725,1,42,dA,85,1.041,0,0,Young,502,543,42,947.9,266.5,897.7,265.1,0.94,150
726,1,42,dA,86,5,1,0,Young,955,975,21,859.6,278.5,895,245,1.08,115
727,1,42,dA,87,4.468,1,0,Young,13,157,145,267.6,1374.1,861.6,346.4,24.45,551
728,1,42,dA,88,0.606,0,0,Young,322,376,55,876.2,345.7,893,254.4,2.36,287
729,1,42,dA,89,4.075,1,0,Young,703,727,25,858.6,259.3,832.8,237.7,0.73,99
730,1,42,dA,90,0.861,0,0,Young,33,48,16,837.2,246.3,793,236.6,0.86,75
731,1,42,dA,91,0.822,1,0,Young,217,249,33,806.1,237.9,856.3,267.1,1.2,177
732,1,42,dA,92,4.841,0,0,Young,604,620,17,865.9,265.1,910.9,262.8,0.84,77
733,1,42,dA,93,3.769,0,0,Young,-68,99,168,841.6,269.2,847.2,277.1,0.23,370
734,1,42,dA,94,6.072,0,0,Young,359,393,35,836.5,264.8,844.1,297.7,0.85,125
735,1,42,dA,95,0.759,0,0,Young,818,842,25,862.9,298.5,896.5,261.3,1.14,126
736,1,42,dA,96,0.706,1,0,Young,-16,16,33,326.2,1360,297.9,1382.9,0.62,85
737,1,43,dAV,81,3.052,0,0,Young,138,225,88,283.5,1393.1,860.3,301.3,25.59,943
738,1,43,dAV,82,0.791,1,0,Young,340,380,41,866.1,325.7,901.2,254.6,1.93,352
739,1,43,dAV,83,1.296,1,0,Young,985,993,9,889.9,213,867.7,196.4,0.6,72
740,1,43,dAV,84,0.909,1,0,Young,268,337,70,1469.7,564.9,967.7,263.8,11.84,467
741,1,43,dAV,85,0.963,1,0,Young,721,874,154,922.6,247.7,2781.4,1313.5,36.18,451
742,1,43,dAV,86,1.221,1,0,Young,542,562,21,866.7,263.4,893.4,290.3,0.85,94
743,1,43,dAV,87,0.706,1,0,Young,852,873,22,881.4,290.3,831,292.9,0.94,102
744,1,43,dAV,88,0.607,1,0,Young,88,119,32,249.1,186.9,101.5,226.6,2.77,207
745,1,43,dAV,89,0.982,1,0,Young,251,329,79,103.4,219.4,821.6,270.4,12.96,502
746,1,43,dAV,90,1.086,0,0,Young,891,914,24,821.4,259.4,853,212.6,1.34,141
747,1,43,dAV,91,1.299,1,0,Young,22,57,36,737.3,384.8,841.4,254,3.85,190
748,1,43,dAV,92,0.577,1,0,Young,391,411,21,846,242,895.5,266.3,1.11,100
749,1,43,dAV,93,1.511,1,0,Young,864,877,14,888.9,274.6,849.2,270.2,0.75,75
750,1,43,dAV,94,0.621,1,0,Young,168,200,33,801.5,234.1,880.8,208.6,1.62,178
751,1,43,dAV,95,2.453,0,0,Young,535,555,21,890.9,202,935.8,202.2,0.84,90
752,1,43,dAV,96,0.884,1,0,Young,858,878,21,933.4,202.2,919.8,271.8,1.81,117
753,1,44,dAdV,81,0.616,1,3,Young,267,288,22,820.5,252,895.3,226.8,1.54,143
754,1,44,dAdV,82,0.883,1,3,Young,747,763,17,865.7,208.4,848.2,211.5,0.34,55
755,1,44,dAdV,83,1.42,0,2,Young,203,335,133,258.6,1401.2,968.6,326,26.13,737
756,1,44,dAdV,84,0.684,1,2,Young,635,652,18,962.4,313.4,916.8,271.1,1.38,106
757,1,44,dAdV,85,0.783,1,2,Young,-81,145,227,860.8,269.5,840,288.2,0.62,358
758,1,44,dAdV,86,2.025,0,3,Young,240,281,42,833.3,272,891.7,278.5,1.1,204
759,1,44,dAdV,87,0.652,1,1,Young,174,238,65,797,518.9,840.2,274.5,6.22,446
760,1,44,dAdV,88,0.492,1,3,Young,546,578,33,862,283.7,855,260.2,0.62,132
761,1,44,dAdV,89,1.355,1,3,Young,956,975,20,868.7,245.5,917.2,248.4,0.91,88
762,1,44,dAdV,90,1.684,0,4,Young,562,580,19,896.6,267.9,949.8,241.4,1.2,119
763,1,44,dAdV,91,1.325,1,1,Young,857,888,32,937.6,245,912.8,238,0.5,76
764,1,44,dAdV,92,0.454,1,1,Young,92,247,156,874.5,330.4,899.4,387.6,1.53,463
765,1,44,dAdV,93,0.741,1,1,Young,318,359,42,902.7,393.7,895.6,314.2,2.03,345
766,1,44,dAdV,94,0.537,1,3,Young,176,263,88,230.2,1452.3,852.9,363.6,25.4,941
767,1,44,dAdV,95,1.437,1,1,Young,348,391,44,854.4,394.6,876.9,299.6,2.45,363
768,1,44,dAdV,96,0.968,1,1,Young,710,735,26,870.1,265.5,879.4,237.9,0.73,139
769,1,45,AdV,81,0.6,1,2,Young,-65,79,145,825.9,225.5,839.6,280.4,1.43,365
770,1,45,AdV,82,0.505,1,4,Young,477,531,55,830.4,273.4,852.6,454.1,4.6,289
771,1,45,AdV,83,0.667,0,2,Young,656,717,62,861.1,473.6,872.9,315.2,4.01,289
772,1,45,AdV,84,2.582,0,4,Young,175,202,28,797.8,264.5,954.7,282.9,2.96,200
773,1,45,AdV,85,0.867,1,1,Young,176,258,83,440.7,1190.2,848.8,352.2,20.24,901
774,1,45,AdV,86,1.678,1,2,Young,358,409,52,850.4,373.6,845.9,279,2.41,315
775,1,45,AdV,87,0.94,1,2,Young,61,145,85,285.3,1434,839.5,419.7,23.54,747
776,1,45,AdV,88,0.833,1,4,Young,272,312,41,860.7,399.6,884.8,349.1,1.36,209
777,1,45,AdV,89,0.767,1,3,Young,166,196,31,883.4,309,999.9,394.7,3.07,212
778,1,45,AdV,90,1.397,1,1,Young,372,417,46,989.4,390.7,963.8,305.3,2.22,245
779,1,45,AdV,91,0.689,0,3,Young,83,127,45,815.8,260,884.6,261,1.28,116
780,1,45,AdV,92,1.283,0,4,Young,424,496,73,899.7,247.9,862.8,574.2,8.23,328
781,1,45,AdV,93,1.955,1,3,Young,584,660,77,875,572.1,891.3,230.2,8.6,471
782,1,45,AdV,94,0.736,1,2,Young,972,1126,155,888.8,277.6,923.1,778.4,12.28,220
783,1,45,AdV,95,1.175,0,1,Young,60,136,77,573.1,911.5,307.1,1407,11,562
784,1,45,AdV,96,1.077,1,3,Young,262,377,116,312.1,1389.1,886.1,293.9,25.67,878
785,1,46,AV,81,0.832,1,0,Young,599,639,41,917.2,290.9,894,257.6,0.96,198
786,1,46,AV,82,0.659,1,0,Young,182,229,48,847.5,247,976.5,274.4,2.51,242
787,1,46,AV,83,2.443,0,0,Young,444,466,23,1005.7,281.8,919.8,259.8,1.7,128
788,1,46,AV,84,0.678,1,0,Young,668,712,45,934.5,270,962,504.9,5.95,236
789,1,46,AV,85,0.807,1,0,Young,820,872,53,972.4,509.4,945.3,301.9,5.26,368
790,1,46,AV,86,0.609,1,0,Young,388,436,49,857.2,268.8,876.1,349.9,2.1,207
791,1,46,AV,87,0.717,1,0,Young,741,763,23,882.5,351.7,898.7,279.3,1.87,171
792,1,46,AV,88,0.943,1,0,Young,804,822,19,904.1,298.4,909.6,332.8,0.88,76
793,1,46,AV,89,0.696,1,0,Young,883,1005,123,905.5,375.5,925.2,537.8,4.08,265
794,1,46,AV,90,1.734,0,0,Young,428,453,26,829.8,255.8,787.9,334,2.14,169
795,1,46,AV,91,2.142,1,0,Young,562,751,190,807.2,329.5,839.3,328.1,0.6,569
796,1,46,AV,92,0.663,1,0,Young,950,992,43,852,340.9,845.6,279.6,1.57,221
797,1,46,AV,93,1.696,0,0,Young,9,59,51,890.6,298.2,824.3,312.4,1.29,110
798,1,46,AV,94,1.057,1,0,Young,261,283,23,815.6,309.8,879.8,274.7,1.49,162
799,1,46,AV,95,0.649,1,0,Young,416,607,192,863.2,312.1,868.8,374.6,1.6,350
800,1,46,AV,96,2.045,0,0,Young,738,772,35,886,345.1,875.6,305.4,1.03,170
801,1,47,A,81,2.031,1,0,Young,169,223,55,1254.1,145.6,824.7,298.9,8.89,505
802,1,47,A,82,5.332,1,0,Young,479,575,97,814.5,342.7,875.1,898,13.35,295
803,1,47,A,83,0.67,1,0,Young,646,705,60,842.8,791.3,823.1,472.5,7.7,370
804,1,47,A,84,0.61,1,0,Young,765,826,62,830.4,451.8,801,295.6,3.99,369
805,1,47,A,85,2.725,1,0,Young,172,218,47,852.9,217.6,940.4,272,2.15,170
806,1,47,A,86,1.441,1,0,Young,480,744,265,953.5,298.9,914,342.6,1.34,674
807,1,47,A,87,4.55,0,0,Young,929,971,43,917.3,318.1,919.2,253.4,1.66,212
808,1,47,A,88,4.894,0,0,Young,-17,50,68,1806.4,428.6,1865,65.1,8.99,400
809,1,47,A,89,1.961,1,0,Young,206,278,73,1874.5,51,970,265.8,17.06,572
810,1,47,A,90,0.838,1,0,Young,388,426,39,955.1,271.7,889.5,270.8,1.22,186
811,1,47,A,91,0.708,1,0,Young,99,177,79,1798.4,49,894.7,274.5,17.25,496
812,1,47,A,92,2.441,0,0,Young,546,623,78,884.2,306.1,885.7,482,4.45,254
813,1,47,A,93,0.658,0,0,Young,675,903,229,889.2,463.7,862.6,246.7,5.53,340
814,1,47,A,94,1.826,1,0,Young,42,51,10,852.8,260.1,840,271.8,0.38,46
815,1,47,A,95,0.685,0,0,Young,356,424,69,835.2,256,863.1,545.9,7.31,394
816,1,47,A,96,1.169,0,0,Young,541,607,67,871,537.2,862.6,278.1,6.53,475
817,1,48,V,81,3.152,0,0,Young,58,103,46,877.4,299.3,1049.3,391.8,3.97,180
818,1,48,V,82,0.802,1,0,Young,285,312,28,1055.9,388.1,1011.7,270.9,3.1,259
819,1,48,V,83,0.564,1,0,Young,610,617,8,996.1,274.9,997.6,285.4,0.27,41
820,1,48,V,84,0.564,0,0,Young,651,706,56,991.3,274.2,987.9,447.7,4.4,196
821,1,48,V,85,1.104,1,0,Young,790,842,53,991.6,467,989.6,307.8,4.03,284
822,1,48,V,86,0.88,1,0,Young,406,446,41,782.6,246.1,838,505.1,6.62,313
823,1,48,V,87,0.693,1,0,Young,580,651,72,836.3,514.4,806.1,263,6.36,412
824,1,48,V,88,0.905,1,0,Young,992,1016,25,809.5,282.5,714.7,286,1.76,151
825,1,48,V,89,0.529,1,0,Young,-17,0,18,838.2,240.7,824.2,296.9,1.46,134
826,1,48,V,90,0.729,1,0,Young,357,414,58,826.2,298.4,892.8,651.7,8.86,392
827,1,48,V,91,0.715,1,0,Young,523,610,88,915.9,667.8,871.4,285.6,9.53,356
828,1,48,V,92,0.774,0,0,Young,-47,3,51,773.8,247.3,969.9,253.2,3.65,236
829,1,48,V,93,0.533,1,0,Young,246,286,41,989.8,254.7,860.2,252.3,2.42,224
830,1,48,V,94,1.052,1,0,Young,469,538,70,843.8,240.8,820.4,716.3,11.75,386
831,1,48,V,95,2.828,0,0,Young,674,749,76,831.8,728,842.5,246.2,11.88,602
832,1,48,V,96,0.57,1,0,Young,192,241,50,911.5,269,981.2,349.7,2.44,229
897,2,1,dA,1,1.89,0,0,Young,445,485,41,990.8,358.4,973.5,295,1.65,219
898,2,1,dA,2,1.161,0,0,Young,742,779,38,969.6,286.4,988.9,437.6,3.85,163
899,2,1,dA,3,1.611,0,0,Young,929,991,63,970.9,475.5,954.7,285.8,4.81,352
900,2,1,dA,4,3.33,0,0,Young,360,421,62,816.4,268.1,866.6,489.6,5.68,230
901,2,1,dA,5,8.241,0,0,Young,553,620,68,874.7,512.3,836.7,222.5,7.35,460
902,2,1,dA,6,0.887,1,0,Young,968,992,25,858.5,259.3,846.8,344.4,2.18,171
903,2,1,dA,7,2.017,0,0,Young,128,160,33,863.8,410.7,865.7,315.4,2.42,199
904,2,1,dA,8,1.878,0,0,Young,266,308,43,863.2,331.5,927,275.8,1.85,310
905,2,1,dA,9,1.268,1,0,Young,586,630,45,934.5,243.5,940.1,516.9,6.9,340
906,2,1,dA,10,1.886,0,0,Young,809,873,65,944.4,534.6,939.8,290.1,6.16,468
907,2,1,dA,11,1.351,1,0,Young,314,371,58,833.4,239.2,780.4,458,5.64,286
908,2,1,dA,12,3.868,0,0,Young,545,610,66,794.6,490.4,814.9,256.6,5.92,375
909,2,1,dA,13,1.931,0,0,Young,384,436,53,782,222.7,689.5,220.6,1.72,170
910,2,1,dA,14,3.252,0,0,Young,579,601,23,708.9,238.7,753.4,298.6,1.74,93
911,2,1,dA,15,3.445,0,0,Young,704,860,157,788.1,334.7,809,222.3,2.9,565
912,2,1,dA,16,0.934,1,0,Young,320,370,51,841,213.9,914.7,314.1,2.92,212
913,2,2,dAdV,1,1.499,1,3,Young,548,591,44,927.9,330.7,922.5,268.4,1.6,212
914,2,2,dAdV,2,3.658,1,4,Young,982,992,11,900.8,239.4,876.3,258,0.66,74
915,2,2,dAdV,3,1.897,1,4,Young,-50,160,211,790,261.5,830.5,247.8,0.83,401
916,2,2,dAdV,4,2.405,1,3,Young,423,458,36,853.2,251.2,880.5,272,0.74,142
917,2,2,dAdV,5,3.448,0,2,Young,747,857,111,880.7,300.7,857,382.6,2.13,191
918,2,2,dAdV,6,1.467,1,3,Young,932,953,22,857,386.1,856.7,335.1,1.3,79
919,2,2,dAdV,7,3.422,0,3,Young,204,250,47,828,275.4,950.1,295,2.33,262
920,2,2,dAdV,8,1.122,0,1,Young,199,248,50,763.1,222.7,843.9,277,2.05,188
921,2,2,dAdV,9,1.117,1,1,Young,572,585,14,854.4,288.5,840.2,262.4,0.72,81
922,2,2,dAdV,10,3.798,0,1,Young,611,616,6,848.4,288.3,846,301.7,0.35,71
923,2,2,dAdV,11,2.933,1,4,Young,691,894,204,846.4,348.1,867.8,260.2,2.28,455
924,2,2,dAdV,12,4.319,1,3,Young,532,565,34,808,279.8,845.9,276.1,0.71,144
925,2,2,dAdV,13,0.833,1,1,Young,68,251,184,830,252.6,946.6,304,2.54,641
926,2,2,dAdV,14,1.255,1,3,Young,936,959,24,951.8,325.1,932.1,289.1,0.99,94
927,2,2,dAdV,15,2.455,1,4,Young,1000,1262,263,951.8,325.1,932.1,289.1,0.99,0
928,2,2,dAdV,16,1.564,1,1,Young,330,391,62,897.4,258.9,913.3,543.7,7.18,364
929,2,3,dV,1,1.535,1,1,Young,540,605,66,916.2,557,867.1,228.4,8.32,523
930,2,3,dV,2,3.324,0,1,Young,25,208,184,788.4,283,858.2,554.1,6.92,468
931,2,3,dV,3,0.835,1,2,Young,347,417,71,854.1,560.7,852.2,246.8,7.9,483
932,2,3,dV,4,2.168,0,4,Young,710,773,64,843.5,267.5,798.8,594.3,8.22,401
933,2,3,dV,5,0.803,1,3,Young,893,978,86,812.7,597.7,820.4,271,8.18,518
934,2,3,dV,6,3.476,0,3,Young,552,599,48,823.7,229.6,874.7,319.4,2.49,230
935,2,3,dV,7,1.315,0,2,Young,795,848,54,892.4,339,880.9,252.4,2.23,276
936,2,3,dV,8,1.276,1,4,Young,968,1138,171,872.9,269.4,855.8,289.4,0.6,748
937,2,3,dV,9,2.254,0,3,Young,360,454,95,826.7,313.7,912.8,903.9,14.24,360
938,2,3,dV,10,1.208,0,4,Young,513,597,85,902.6,915.3,832,214.7,16.87,861
939,2,3,dV,11,2.302,0,2,Young,954,1172,219,847.9,269,885.8,468.6,5.1,554
940,2,3,dV,12,1.34,1,4,Young,-28,119,148,818.8,394.7,799.8,306.6,2.26,576
941,2,3,dV,13,8.61,1,1,Young,584,628,45,829.3,313.1,869.1,425.8,2.95,245
942,2,3,dV,14,1,0,4,Young,683,834,152,877.2,457.2,831.5,320,3.57,728
943,2,3,dV,15,2.311,1,4,Young,82,270,189,776.6,327.4,884.5,430.4,3.29,475
944,2,3,dV,16,3.808,1,1,Young,332,380,49,887.8,437.4,842.3,306.1,3.43,282
945,2,4,AV,1,2.391,1,0,Young,640,694,55,830.9,284.8,813.6,515.1,5.81,290
946,2,4,AV,2,2.465,1,0,Young,833,903,71,820.1,541.2,822.5,280.4,6.55,430
947,2,4,AV,3,2.995,1,0,Young,-81,104,186,798.3,267.8,814.1,294.5,0.74,745
948,2,4,AV,4,1.21,1,0,Young,405,475,71,804.9,305,873.4,779.2,11.65,369
949,2,4,AV,5,1.544,1,0,Young,571,645,75,860.4,786.4,817.8,282.5,12.33,705
950,2,4,AV,6,2.247,1,0,Young,-24,4,29,761.4,298.9,808.1,240.7,1.72,179
951,2,4,AV,7,0.875,1,0,Young,189,234,46,823.5,256.9,926.6,291.2,2.11,310
952,2,4,AV,8,4.264,0,0,Young,389,599,211,949.2,328,912.6,566.5,6.01,942
953,2,4,AV,9,1.113,0,0,Young,663,709,47,917.6,563,899.7,448.9,2.86,354
954,2,4,AV,10,1.575,1,0,Young,789,834,46,893.6,426.4,904.1,346.1,2.04,312
955,2,4,AV,11,0.712,1,0,Young,-50,108,159,784.6,263.1,807.1,242.4,0.68,603
956,2,4,AV,12,1.444,1,0,Young,420,553,134,798,240.5,850,734.8,12.23,472
957,2,4,AV,13,1.216,0,0,Young,576,584,9,846.1,757.1,854.2,782.1,0.6,78
958,2,4,AV,14,1.46,0,0,Young,620,700,81,859.1,795.6,792.5,268.6,12.93,678
959,2,4,AV,15,3.988,0,0,Young,85,108,24,768.1,267.3,868,269.1,1.86,164
960,2,4,AV,16,4.446,1,0,Young,444,494,51,842.3,277.5,824.9,595.2,7.96,273
961,2,5,dAV,1,1.093,1,0,Young,594,662,69,810,609.8,783,245.3,9.11,445
962,2,5,dAV,2,1.162,1,0,Young,867,920,54,797.4,251.7,812.2,182.9,1.79,233
963,2,5,dAV,3,0.968,1,0,Young,204,260,57,848.5,433.4,815.3,247.8,4.75,366
964,2,5,dAV,4,1.701,0,0,Young,470,575,106,813.4,250.9,911.9,744.4,12.27,305
965,2,5,dAV,5,0.999,1,0,Young,707,790,84,909.5,755.8,824.3,256.3,12.37,608
966,2,5,dAV,6,1.406,1,0,Young,201,261,61,890,455,827.9,294.8,4.22,354
967,2,5,dAV,7,0.833,1,0,Young,558,620,63,832.5,311.1,815.1,633.5,8.02,333
968,2,5,dAV,8,1.054,1,0,Young,766,839,74,833.7,633.8,812,289.4,8.59,530
969,2,5,dAV,9,8.046,1,0,Young,321,393,73,810.5,266,936.5,870.9,14.79,453
970,2,5,dAV,10,1.002,1,0,Young,525,608,84,939.1,866.9,858.1,247.4,15.05,701
971,2,5,dAV,11,0.888,1,0,Young,186,230,45,769.7,240,821.6,309.4,2.02,271
972,2,5,dAV,12,2.002,1,0,Young,463,521,59,834.6,356.4,907.7,840.1,11.76,544
973,2,5,dAV,13,2.639,1,0,Young,645,721,77,894.8,863.3,861.5,259.4,14.62,759
974,2,5,dAV,14,1.601,1,0,Young,997,1050,54,884.1,295.3,813.5,452.6,4.19,377
975,2,5,dAV,15,1.051,1,0,Young,260,305,46,802.4,300.8,918.3,287.1,2.18,216
976,2,5,dAV,16,2.746,1,0,Young,443,499,57,935.4,293.2,952.2,539.8,6.21,334
977,2,6,V,1,0.739,1,0,Young,674,745,72,953.7,582,911.7,252.9,8.29,490
978,2,6,V,2,0.834,1,0,Young,-45,171,217,885,328.6,809.7,292.3,1.68,532
979,2,6,V,3,1.338,1,0,Young,631,793,163,804,297.6,861.7,698.7,9.96,435
980,2,6,V,4,0.876,1,0,Young,819,898,80,868.2,718.6,833.9,214.2,12.49,627
981,2,6,V,5,0.895,1,0,Young,154,198,45,831.9,250.6,951.9,288.7,2.44,268
982,2,6,V,6,0.87,1,0,Young,720,725,6,968.3,291.9,954.5,285.5,0.3,64
983,2,6,V,7,3.146,1,0,Young,48,69,22,812,262.2,744.5,262.1,1.25,116
984,2,6,V,8,2.048,0,0,Young,189,238,50,759.1,258.4,934.9,266.7,3.28,290
985,2,6,V,9,2.336,0,0,Young,932,960,29,955.2,272.9,977.2,269.1,0.42,117
986,2,6,V,10,2.511,0,0,Young,-55,7,63,1014.7,389.1,792.9,278,4.99,272
987,2,6,V,11,1.978,1,0,Young,314,348,35,789.1,260.5,804.2,281,0.6,152
988,2,6,V,12,2.365,0,0,Young,47,72,26,793,272.1,801.5,381.8,2.8,241
989,2,6,V,13,1.076,1,0,Young,227,266,40,804.9,362.7,836.2,310.7,1.44,258
990,2,6,V,14,1.21,1,0,Young,521,540,20,842,286.2,800.5,275.1,0.82,87
991,2,6,V,15,0.711,0,0,Young,860,888,29,806.9,277.6,833.3,273.4,0.5,106
992,2,6,V,16,1.166,0,0,Young,-82,114,197,822.7,287.8,818.9,292.6,0.14,602
993,2,7,AdV,1,0.907,1,4,Young,235,272,38,819.7,272.4,887.8,263.4,1.29,180
994,2,7,AdV,2,1.616,1,2,Young,587,603,17,904.5,256.8,877.2,225.6,0.95,80
995,2,7,AdV,3,0.966,0,1,Young,921,942,22,888.1,236.4,958.3,221.1,1.37,129
996,2,7,AdV,4,4.103,1,3,Young,222,264,43,822.2,324.6,855.8,253.4,1.93,270
997,2,7,AdV,5,0.852,0,4,Young,821,1008,188,851.6,220,879.9,621.7,10.06,720
998,2,7,AdV,6,5.365,0,4,Young,218,274,57,816.9,334.4,828.5,234.7,2.56,302
999,2,7,AdV,7,2.101,1,4,Young,657,679,23,828.5,202.5,848.9,202.5,0.38,72
1000,2,7,AdV,8,1.028,0,2,Young,965,988,24,851.4,214.4,786.5,203.2,1.24,105
1001,2,7,AdV,9,2.149,1,3,Young,146,200,55,874.9,63.4,865.5,257.2,5,426
1002,2,7,AdV,10,0.856,0,1,Young,426,448,23,872.1,288.6,800.8,284.3,1.33,127
1003,2,7,AdV,11,0.989,1,1,Young,82,143,62,878.8,272.3,1105.3,328.3,4.45,321
1004,2,7,AdV,12,4.165,0,4,Young,195,252,58,1105.5,343.2,852.8,371.2,4.74,368
1005,2,7,AdV,13,1.999,1,3,Young,546,579,34,862.5,373.5,839.1,349.9,0.74,131
1006,2,7,AdV,14,0.668,1,1,Young,552,577,26,827.9,277.7,821,332.1,1.4,116
1007,2,7,AdV,15,0.94,1,4,Young,961,975,15,808.9,332.3,762.5,331.5,0.86,81
1008,2,7,AdV,16,0.805,1,1,Young,186,222,37,751.1,229.9,810.6,237.2,1.12,197
1009,2,8,A,1,1.178,1,0,Young,564,577,14,826.9,232,793.4,227.3,0.64,73
1010,2,8,A,2,2.709,0,0,Young,869,886,18,803.3,244.1,840.8,236.3,0.73,80
1011,2,8,A,3,1.085,1,0,Young,-7,188,196,726.4,372.9,757.9,304.7,1.83,555
1012,2,8,A,4,1.162,1,0,Young,357,395,39,760.4,288,797.7,254.2,1.11,224
1013,2,8,A,5,1.181,1,0,Young,860,879,20,805,235.3,772.6,237,0.6,72
1014,2,8,A,6,1.144,1,0,Young,215,252,38,798.4,211.8,825.2,239.8,0.88,147
1015,2,8,A,7,0.788,0,0,Young,566,598,33,831.3,243,825.4,233.3,0.27,113
1016,2,8,A,8,0.757,1,0,Young,960,991,32,819.9,238.6,843.1,238.8,0.43,106
1017,2,8,A,9,0.899,0,0,Young,159,209,51,728.7,264.2,858.7,273.7,2.43,244
1018,2,8,A,10,4.614,1,0,Young,970,1003,34,817.6,241,824.6,219.8,0.56,137
1019,2,8,A,11,1.132,1,0,Young,31,225,195,821.6,394.4,780.7,304.7,2.4,780
1020,2,8,A,12,3.688,1,0,Young,621,655,35,775.1,261.1,734.9,266.1,0.76,138
1021,2,8,A,13,0.957,1,0,Young,201,240,40,772.1,281.2,824.5,288.2,0.99,217
1022,2,8,A,14,2.614,1,0,Young,915,935,21,843.3,290.5,904.3,270.4,1.25,124
1023,2,8,A,15,0.955,0,0,Young,171,235,65,752.3,491.4,891.8,253.8,6.54,393
1024,2,8,A,16,1.271,0,0,Young,526,594,69,888,264.5,828.5,658.5,9.85,406
1025,2,9,dAdV,17,0.649,1,2,Young,749,823,75,840.5,651.6,870.9,275.7,9.37,498
1026,2,9,dAdV,18,4.82,0,4,Young,60,112,53,774.7,244.3,844.6,298.3,1.9,157
1027,2,9,dAdV,19,4.741,0,3,Young,480,508,29,855.5,324.1,814.8,469.7,3.75,317
1028,2,9,dAdV,20,0.769,0,2,Young,599,657,59,815.1,479.4,809.7,296.6,4.62,401
1029,2,9,dAdV,21,1.869,0,1,Young,-29,35,65,872.2,383.3,799.6,216.4,4.47,377
1030,2,9,dAdV,22,0.673,1,4,Young,496,657,162,805.7,242.5,844.8,353.4,2.93,863
1031,2,9,dAdV,23,2.42,1,2,Young,850,884,35,837.6,337.9,828.9,257.6,2.06,257
1032,2,9,dAdV,24,2.096,1,2,Young,99,142,44,768.2,286.9,822.2,234.1,1.69,159
1033,2,9,dAdV,25,1.725,0,3,Young,366,431,66,833.8,229.9,915.1,430.6,5.33,337
1034,2,9,dAdV,26,0.947,0,2,Young,581,644,64,911.5,429.7,897.1,245.6,4.69,404
1035,2,9,dAdV,27,3.701,1,4,Young,116,151,36,822.4,349.1,814.6,318.2,0.8,170
1036,2,9,dAdV,28,0.849,1,3,Young,255,302,48,815.8,309.2,932.4,257.1,2.55,258
1037,2,9,dAdV,29,1.02,1,3,Young,508,590,83,942.3,262.7,893.8,800.7,13.15,418
1038,2,9,dAdV,30,2.485,0,1,Young,734,811,78,880.1,816.8,915,251.8,13.8,678
1039,2,9,dAdV,31,1.896,0,2,Young,48,103,56,879.7,402.5,795.4,286.1,3.35,234
1040,2,9,dAdV,32,1.472,0,2,Young,346,399,54,789.4,267.9,785.9,432.4,4.18,290
1041,2,10,AV,17,1.403,1,0,Young,577,636,60,791,456.1,772.6,313.7,3.62,359
1042,2,10,AV,18,1.141,1,0,Young,77,257,181,834.4,244.6,939.7,358.9,3.52,641
1043,2,10,AV,19,1.238,1,0,Young,553,609,57,933.6,355.7,869.3,557.8,5.2,214
1044,2,10,AV,20,2.761,0,0,Young,703,768,66,883.9,574.3,902.4,335.5,5.99,542
1045,2,10,AV,21,1.023,1,0,Young,50,67,18,804.6,257.7,799.3,302,1.14,76
1046,2,10,AV,22,3.903,1,0,Young,366,424,59,791.3,326.3,776.7,721.6,9.73,405
1047,2,10,AV,23,2.599,1,0,Young,559,637,79,794.8,761.1,784.1,241.3,12.76,541
1048,2,10,AV,24,1.091,1,0,Young,129,232,104,1058.3,575.3,906.4,356.5,6.14,624
1049,2,10,AV,25,1.053,1,0,Young,293,327,35,910.1,333.6,869.9,252.1,2.22,296
1050,2,10,AV,26,0.885,1,0,Young,743,798,56,855.4,219.2,844.4,525.1,7.72,346
1051,2,10,AV,27,1.293,1,0,Young,954,1019,66,848.8,544.3,853.8,200.2,8.68,464
1052,2,10,AV,28,1.636,1,0,Young,183,227,45,729.7,321.2,838.3,279,2.29,244
1053,2,10,AV,29,0.985,1,0,Young,433,524,92,859.2,280.2,837.1,869.8,14.25,379
1054,2,10,AV,30,1.075,1,0,Young,614,694,81,837.1,882,810.4,329.8,13.28,711
1055,2,10,AV,31,1.496,1,0,Young,952,990,39,824.9,364.2,825.7,294.5,1.78,296
1056,2,10,AV,32,5.708,0,0,Young,446,543,98,274,1402.7,847.7,346.9,24.75,670
1057,2,11,dA,17,1.991,1,0,Young,632,681,50,861.7,368.5,890.5,258.6,2.85,398
1058,2,11,dA,18,3.041,0,0,Young,212,261,50,804.6,271.9,903.7,345.3,2.63,357
1059,2,11,dA,19,3.149,1,0,Young,449,494,46,916.1,371.3,863,335.4,1.34,193
1060,2,11,dA,20,1.82,1,0,Young,633,661,29,858.5,322.9,843.8,456.5,3.39,232
1061,2,11,dA,21,4.021,0,0,Young,850,907,58,844.2,449.7,848.3,309.6,3.55,348
1062,2,11,dA,22,1.353,1,0,Young,135,200,66,1060.5,450.9,850.3,270.5,6.01,369
1063,2,11,dA,23,1.35,1,0,Young,510,588,79,851.8,273.4,862.7,890.3,14.85,373
1064,2,11,dA,24,2.198,1,0,Young,718,757,40,867.8,899.1,813.3,402.5,11.89,589
1065,2,11,dA,25,1.665,1,0,Young,781,901,121,817.3,375.6,824.2,351.9,0.61,59
1066,2,11,dA,26,4.768,0,0,Young,-35,143,179,776,271,807.3,315.1,1.27,667
1067,2,11,dA,27,0.931,1,0,Young,363,405,43,817.1,284.7,880.8,271.7,1.23,192
1068,2,11,dA,28,2.088,0,0,Young,581,615,35,896.9,292.2,893.5,429.8,3.49,268
1069,2,11,dA,29,1.02,1,0,Young,736,786,51,885.5,435.4,863.4,323.2,2.87,326
1070,2,11,dA,30,3.715,0,0,Young,170,230,61,791.2,216.6,911.5,407.7,5.36,412
1071,2,11,dA,31,1.092,1,0,Young,424,488,65,916.1,425.9,842.1,230.8,5.15,406
1072,2,11,dA,32,1.44,0,0,Young,770,841,72,851.6,255.2,853.6,628,9.3,337
1073,2,12,V,17,0.995,1,0,Young,151,197,47,765.4,235.7,863.1,288.2,2.26,245
1074,2,12,V,18,1.319,1,0,Young,720,747,28,880.6,282.5,867.7,271,0.38,130
1075,2,12,V,19,0.826,1,0,Young,251,321,71,504.3,276.3,952.9,256,8.29,335
1076,2,12,V,20,2.845,0,0,Young,705,724,20,943.4,270.2,965.5,281.9,0.51,82
1077,2,12,V,21,2.569,1,0,Young,960,974,15,965.5,290.2,966.3,328.2,0.97,76
1078,2,12,V,22,1.026,1,0,Young,66,122,57,856,371.1,805.7,262.8,2.92,247
1079,2,12,V,23,0.866,1,0,Young,219,256,38,807.9,273.4,852.7,276.1,0.84,188
1080,2,12,V,24,0.712,1,0,Young,514,528,15,880.7,255.2,883.2,236.6,0.48,57
1081,2,12,V,25,1.283,1,0,Young,946,963,18,865.4,218.5,874.7,194.5,0.64,99
1082,2,12,V,26,1.241,1,0,Young,373,406,34,806.3,212.2,838,258,1.32,175
1083,2,12,V,27,1.546,1,0,Young,675,709,35,851.5,268.3,836.8,227.1,1.09,166
1084,2,12,V,28,0.908,1,0,Young,951,966,16,833.6,240.7,794.4,243.9,0.74,62
1085,2,12,V,29,1.072,1,0,Young,123,269,147,763.1,252.4,861.4,327.4,2.65,954
1086,2,12,V,30,1.061,1,0,Young,455,481,27,860.6,302.9,855.4,266.3,0.94,116
1087,2,12,V,31,2.952,0,0,Young,797,818,22,849.3,262.9,876.5,310.2,1.31,132
1088,2,12,V,32,0.806,1,0,Young,64,111,48,838.2,289.6,789.8,249,1.38,167
1089,2,13,dV,17,0.585,1,4,Young,301,338,38,782.5,236.9,823,277.6,1.29,183
1090,2,13,dV,18,1.069,1,2,Young,812,830,19,820.3,298.9,785.9,258.4,1.22,128
1091,2,13,dV,19,4.339,1,1,Young,330,352,23,783.6,239.9,802.8,287.2,1.26,112
1092,2,13,dV,20,1.59,0,4,Young,790,809,20,805.8,275.3,802.5,225.3,1.29,104
1093,2,13,dV,21,1.219,0,3,Young,164,229,66,1054.5,483.4,849.1,252.1,6.98,441
1094,2,13,dV,22,1.431,0,4,Young,320,339,20,799.7,261.4,762.5,257.2,0.7,71
1095,2,13,dV,23,1.992,1,3,Young,766,791,26,803.6,258.6,857.4,237.1,1.14,147
1096,2,13,dV,24,1.491,1,4,Young,339,363,25,779,257.1,817.5,283.7,0.99,120
1097,2,13,dV,25,1.285,1,2,Young,893,918,26,821.7,286.2,820.7,223.4,1.61,176
1098,2,13,dV,26,0.985,1,2,Young,217,253,37,805.4,212.3,822.2,246,0.92,132
1099,2,13,dV,27,0.751,1,1,Young,973,989,17,835.2,262.4,853.6,232.6,0.84,84
1100,2,13,dV,28,1.523,0,1,Young,272,304,33,820.9,265.1,858.1,277.8,0.77,156
1101,2,13,dV,29,0.886,1,2,Young,925,958,34,868.8,279.9,864.8,326.9,1.2,95
1102,2,13,dV,30,1.191,0,1,Young,205,262,58,795.6,315.4,828.7,232.2,2.22,275
1103,2,13,dV,31,1.911,1,4,Young,931,945,15,824.3,203.9,834.4,189.9,0.41,78
1104,2,13,dV,32,1.726,1,1,Young,168,205,38,769.6,241.8,837,255.6,1.3,191
1105,2,14,A,17,1.596,1,0,Young,456,488,33,853.5,252.1,846.6,217.7,0.89,180
1106,2,14,A,18,0.755,1,0,Young,164,204,41,793.8,246.5,819.6,270,0.77,143
1107,2,14,A,19,2.761,1,0,Young,665,675,11,830.2,272.6,798.9,258.8,0.68,73
1108,2,14,A,20,0.892,1,0,Young,662,679,18,813.7,280.9,763,252,1.2,103
1109,2,14,A,21,3.685,0,0,Young,325,356,32,789.2,301.2,826.1,274.6,0.97,132
1110,2,14,A,22,0.828,1,0,Young,765,794,30,837.8,297.6,840.2,325.4,0.71,76
1111,2,14,A,23,2.402,0,0,Young,-79,179,259,833.7,263.3,883.7,330.8,1.96,583
1112,2,14,A,24,0.783,1,0,Young,326,365,40,882.8,301.5,931.9,288.8,0.97,201
1113,2,14,A,25,1.059,1,0,Young,834,855,22,940.9,284,984.6,280.5,0.82,100
1114,2,14,A,26,2.236,0,0,Young,519,535,17,816.2,217.9,852,192.2,0.94,97
1115,2,14,A,27,1.264,0,0,Young,928,937,10,825.5,188,797.4,191.2,0.53,62
1116,2,14,A,28,3.227,0,0,Young,159,201,43,768.1,261.8,841.6,294.6,1.6,243
1117,2,14,A,29,1.344,1,0,Young,522,545,24,867.6,295.9,856.5,253.2,1.11,100
1118,2,14,A,30,1.545,0,0,Young,271,295,25,827.1,221.4,901.5,268.2,1.84,164
1119,2,14,A,31,0.859,1,0,Young,682,715,34,885.4,232.6,877.4,201.4,0.82,148
1120,2,14,A,32,3.311,1,0,Young,173,205,33,809.4,235.9,840.3,304.3,1.85,230
1121,2,15,dAV,17,1.901,0,0,Young,771,822,52,864,307.1,886.1,398.1,2.35,176
1122,2,15,dAV,18,1.393,1,0,Young,159,224,66,817.3,345.2,886.5,225.8,3.31,326
1123,2,15,dAV,19,1.006,1,0,Young,790,808,19,874.2,229.1,840.7,227.5,0.63,61
1124,2,15,dAV,20,1.832,1,0,Young,193,229,37,778.2,261.7,850.7,272.2,1.38,204
1125,2,15,dAV,21,1.321,1,0,Young,709,733,25,858.7,253.1,827.8,226.3,0.9,108
1126,2,15,dAV,22,0.724,1,0,Young,169,209,41,784.5,253.1,832.3,268.5,0.97,156
1127,2,15,dAV,23,1.187,1,0,Young,678,701,24,842.6,276.4,809.9,265.8,0.67,82
1128,2,15,dAV,24,1.193,1,0,Young,146,235,90,-2.9,35.7,819.1,335.4,16.43,423
1129,2,15,dAV,25,1.058,1,0,Young,448,492,45,812.7,355.9,813.6,299.4,1.44,247
1130,2,15,dAV,26,0.844,1,0,Young,475,498,24,803.9,251.8,855.8,230.4,1.11,118
1131,2,15,dAV,27,1.029,1,0,Young,897,912,16,851.2,240.4,810.4,232.7,0.79,77
1132,2,15,dAV,28,1.008,1,0,Young,188,244,57,778.3,448.3,846.6,292,4.15,377
1133,2,15,dAV,29,5.124,0,0,Young,671,684,14,854.7,267.6,823.2,253.5,0.69,76
1134,2,15,dAV,30,1.374,0,0,Young,905,929,25,821.6,264.8,863.2,254.2,0.82,112
1135,2,15,dAV,31,0.865,1,0,Young,415,439,25,776.4,204.9,801.8,138.9,1.77,171
1136,2,15,dAV,32,1.246,1,0,Young,50,102,53,871.2,378.1,666.1,394.6,3.8,203
1137,2,16,AdV,17,0.758,1,4,Young,253,318,66,647.8,399.6,952.2,242.3,6.91,385
1138,2,16,AdV,18,1.067,1,4,Young,574,592,19,940.1,246,921.1,237,0.42,84
1139,2,16,AdV,19,1.358,1,4,Young,915,946,32,907.8,246.3,932.7,298.8,1.42,98
1140,2,16,AdV,20,0.74,1,1,Young,246,279,34,796.9,279.8,844.5,254.7,1.09,156
1141,2,16,AdV,21,0.67,1,3,Young,790,807,18,848.5,225.9,816.6,200.3,0.89,66
1142,2,16,AdV,22,0.936,1,1,Young,329,385,57,778.4,214.7,810.4,362.9,3.83,271
1143,2,16,AdV,23,1.044,0,3,Young,508,609,102,815.1,406.5,784.7,279.8,3.27,519
1144,2,16,AdV,24,2.92,1,2,Young,936,1000,65,793.3,272.1,739.2,525,6.45,244
1145,2,16,AdV,25,2.897,1,1,Young,189,269,81,649.4,939.8,867.2,340.6,14.76,629
1146,2,16,AdV,26,0.881,1,2,Young,352,410,59,863.9,367.8,832,230.3,3.56,469
1147,2,16,AdV,27,1.108,0,2,Young,686,749,64,835.2,247.5,855.3,653.5,10.12,399
1148,2,16,AdV,28,3.151,0,3,Young,872,960,89,861.4,658.4,837,254.1,10.05,600
1149,2,16,AdV,29,1.176,1,3,Young,115,267,153,858.1,156.6,885.4,354,5.09,569
1150,2,16,AdV,30,1.321,1,3,Young,501,576,76,876.7,334,848.7,745.1,10.1,384
1151,2,16,AdV,31,1.225,1,2,Young,605,619,15,862.1,742.6,861.2,777,0.81,92
1152,2,16,AdV,32,1.808,1,1,Young,660,757,98,870.1,785.1,871.7,215.5,13.96,591
1153,2,17,AV,33,0.9,1,0,Young,185,254,70,998.8,517.7,862,201.9,8.38,440
1154,2,17,AV,34,0.769,1,0,Young,453,668,216,885.3,229.2,916.3,570.5,8.59,376
1155,2,17,AV,35,2.022,1,0,Young,697,750,54,922.2,557.2,936.3,385.8,4.29,236
1156,2,17,AV,36,1.185,1,0,Young,856,898,43,948.3,372.7,946.5,248.6,3.17,422
1157,2,17,AV,37,1.849,1,0,Young,-19,163,183,799.8,291.7,805.6,346.7,1.41,734
1158,2,17,AV,38,1.701,1,0,Young,581,606,26,819.7,352.2,753.4,462.2,3.03,237
1159,2,17,AV,39,0.902,1,0,Young,718,778,61,768.9,473.8,785.6,282.2,4.85,362
1160,2,17,AV,40,1.112,1,0,Young,188,234,47,754.6,231.1,843.1,311.6,2.64,277
1161,2,17,AV,41,1.31,1,0,Young,374,616,243,856.8,357.8,858.1,448.1,2.28,672
1162,2,17,AV,42,0.626,1,0,Young,668,723,56,858.1,450.2,832,272.6,4.53,424
1163,2,17,AV,43,0.824,0,0,Young,86,137,52,760.4,232.6,815.9,294.1,1.88,191
1164,2,17,AV,44,1.014,1,0,Young,330,364,35,817,307.1,855.3,243.3,1.78,246
1165,2,17,AV,45,1.604,1,0,Young,495,565,71,860.2,242.1,856.7,673.7,10.72,467
1166,2,17,AV,46,1.563,1,0,Young,750,827,78,871.8,699.9,849.2,228.1,11.69,545
1167,2,17,AV,47,1.123,1,0,Young,301,374,74,794.7,269.5,800.9,727.6,11.28,437
1168,2,17,AV,48,0.803,1,0,Young,532,611,80,818.6,749.2,790.1,256.9,12.11,652
1169,2,18,V,33,1.03,1,0,Young,171,375,205,741.2,316.1,788.1,461.3,3.77,727
1170,2,18,V,34,0.887,1,0,Young,443,506,64,790.7,451.7,801.2,268.3,4.65,348
1171,2,18,V,35,2.836,0,0,Young,156,216,61,751.1,158,912.1,333.6,5.41,434
1172,2,18,V,36,1.879,0,0,Young,304,348,45,918.5,357,918.7,293.1,1.63,232
1173,2,18,V,37,0.915,1,0,Young,554,625,72,918.8,277.3,925.5,567.5,7.28,192
1174,2,18,V,38,0.776,1,0,Young,808,884,77,914,613.3,922.7,205.8,10.21,479
1175,2,18,V,39,1.041,1,0,Young,-63,148,212,817.9,272.1,802.6,319.3,1.24,762
1176,2,18,V,40,0.96,1,0,Young,247,292,46,804.8,303.5,910.2,300,1.96,275
1177,2,18,V,41,1.121,1,0,Young,584,638,55,944,307.7,922.3,545.1,5.98,356
1178,2,18,V,42,0.714,1,0,Young,817,895,79,926.2,582.7,941.3,260.6,8.09,478
1179,2,18,V,43,1.528,1,0,Young,-21,34,56,798.7,339.5,823.1,255,2.21,154
1180,2,18,V,44,1.73,1,0,Young,196,240,45,820,246.9,926.4,258.4,2.01,222
1181,2,18,V,45,1.796,0,0,Young,445,585,141,949.3,283.1,940.9,843.2,13.58,363
1182,2,18,V,46,9.76,0,0,Young,651,733,83,941.8,837.9,923.5,290,13.3,660
1183,2,18,V,47,1.383,1,0,Young,102,168,67,789,287.1,986.6,452.4,5.56,378
1184,2,18,V,48,1.828,1,0,Young,285,347,63,970.2,455.1,941.3,256.9,5.06,450
1185,2,19,dAdV,33,1.232,1,4,Young,617,780,164,957.6,261.5,928.8,514,6.4,514
1186,2,19,dAdV,34,0.627,1,2,Young,956,1021,66,925.5,497.6,972,237.1,6.65,483
1187,2,19,dAdV,35,2.502,1,3,Young,42,129,88,684.5,1180.2,803.7,363.5,18.68,571
1188,2,19,dAdV,36,0.726,0,4,Young,319,365,47,815.1,366.9,863.9,267.9,2.68,321
1189,2,19,dAdV,37,4.633,1,2,Young,587,641,55,870.3,244.4,876.2,466.5,5.64,310
1190,2,19,dAdV,38,0.958,1,3,Young,732,786,55,886.2,494.4,837.8,632.6,3.51,360
1191,2,19,dAdV,39,0.93,1,4,Young,832,850,19,847.4,633,853.5,665.5,0.79,71
1192,2,19,dAdV,40,1.972,1,2,Young,914,981,68,863.4,674,860.5,251.1,10.51,535
1193,2,19,dAdV,41,0.994,1,3,Young,454,578,125,776.1,304.4,784.3,608.7,7.58,260
1194,2,19,dAdV,42,1.325,1,4,Young,640,711,72,794.9,634.5,770.4,301.4,8.29,433
1195,2,19,dAdV,43,0.931,1,1,Young,966,1007,42,812.5,315.7,785.3,267,1.34,193
1196,2,19,dAdV,44,0.864,1,1,Young,310,394,85,810.4,229.9,888.9,913.3,16.47,425
1197,2,19,dAdV,45,1.765,1,2,Young,467,560,94,905.3,921.7,828.2,270.1,15.67,589
1198,2,19,dAdV,46,0.739,1,2,Young,865,924,60,829.6,267.9,769.9,496.1,5.87,280
1199,2,19,dAdV,47,0.638,1,1,Young,203,247,45,806.1,221,775.7,321.4,2.63,350
1200,2,19,dAdV,48,1.25,1,4,Young,439,483,45,774.6,339.5,751.4,288.3,1.38,268
1201,2,20,A,33,1.562,1,0,Young,999,1017,19,768,211,813.7,203.5,0.87,91
1202,2,20,A,34,1.481,1,0,Young,216,278,63,914.9,472.5,847.1,242,5.98,414
1203,2,20,A,35,6.946,0,0,Young,575,606,32,843.3,259.4,819.8,245.2,0.57,128
1204,2,20,A,36,1.076,1,0,Young,850,869,20,804.3,237.7,781.3,250.7,0.54,75
1205,2,20,A,37,0.736,1,0,Young,-55,134,190,762.6,249.4,788,290.4,1.15,566
1206,2,20,A,38,3.565,0,0,Young,355,391,37,785.4,270.7,817.3,259.2,0.66,162
1207,2,20,A,39,1.255,0,0,Young,755,783,29,855.9,247.1,888.1,229.9,0.75,131
1208,2,20,A,40,0.786,1,0,Young,212,235,24,801.2,247.9,821.1,312.8,1.7,145
1209,2,20,A,41,1.484,0,0,Young,843,861,19,847.7,310.7,882.3,279.7,1.02,118
1210,2,20,A,42,1.104,1,0,Young,78,138,61,797.6,369.4,785.1,226.8,3.65,411
1211,2,20,A,43,1.407,0,0,Young,359,382,24,794.9,227.8,849.2,244.8,1.1,144
1212,2,20,A,44,4.538,1,0,Young,942,958,17,860.5,250,878.5,211.5,1.05,106
1213,2,20,A,45,3.273,1,0,Young,77,122,46,850.6,212.3,900.7,283.1,2.05,275
1214,2,20,A,46,1.228,0,0,Young,289,327,39,910,306.2,918.8,267.9,0.99,204
1215,2,20,A,47,2.705,0,0,Young,982,998,17,927.9,271.8,940.1,315.3,1.14,98
1216,2,20,A,48,1.003,1,0,Young,669,865,197,836.1,245.4,847.2,266,0.57,542
1217,2,21,dA,33,2.104,0,0,Young,389,428,40,761.1,309.2,744.4,261.7,1.25,240
1218,2,21,dA,34,0.9,1,0,Young,371,409,39,783.6,241,790.9,271.3,0.79,140
1219,2,21,dA,35,0.755,0,0,Young,677,717,41,795.9,279.7,775,233.9,1.24,168
1220,2,21,dA,36,3.662,0,0,Young,-60,121,182,775.1,212.3,792.2,260.9,1.29,640
1221,2,21,dA,37,2.922,1,0,Young,254,292,39,799.2,249.3,799.7,302.6,1.36,288
1222,2,21,dA,38,1.061,0,0,Young,467,497,31,803,334,764.7,293.2,1.26,192
1223,2,21,dA,39,0.861,1,0,Young,764,770,7,760,284.1,741.9,281.2,0.34,50
1224,2,21,dA,40,0.849,1,0,Young,949,982,34,742.4,279.5,776.3,273,0.65,127
1225,2,21,dA,41,1.03,1,0,Young,134,194,61,781.4,72.2,911.2,300.4,6.35,487
1226,2,21,dA,42,1.378,1,0,Young,332,372,41,919.7,311,927.8,271.3,1.03,219
1227,2,21,dA,43,4.051,1,0,Young,133,182,50,777.5,192.1,920.2,235.1,2.88,255
1228,2,21,dA,44,1.158,1,0,Young,497,513,17,906.8,266.9,894.2,292.5,0.7,72
1229,2,21,dA,45,1.036,1,0,Young,545,560,16,813.6,225.1,858.2,199.9,1.06,104
1230,2,21,dA,46,1.701,1,0,Young,864,875,12,849.9,192.9,810.9,184.2,0.76,79
1231,2,21,dA,47,1.293,1,0,Young,142,217,76,416.5,-6.9,842.4,271.6,10.58,614
1232,2,21,dA,48,0.934,1,0,Young,403,439,37,830.8,279.4,830.8,250.7,0.74,219
1233,2,22,AdV,33,0.843,1,1,Young,655,678,24,814.9,225.3,787.8,198.2,0.86,104
1234,2,22,AdV,34,0.647,1,4,Young,911,916,6,791.3,206.1,787.7,222.5,0.43,49
1235,2,22,AdV,35,1.014,1,3,Young,152,178,27,795.2,356.1,903.7,275,2.89,211
1236,2,22,AdV,36,1.267,1,4,Young,929,951,23,905.8,264.6,898,212.8,1.34,99
1237,2,22,AdV,37,1.868,0,1,Young,189,258,70,823,377.2,821,164,5.45,497
1238,2,22,AdV,38,2.797,1,4,Young,485,515,31,826.1,192.4,804.1,204.8,0.52,79
1239,2,22,AdV,39,0.961,1,4,Young,817,840,24,790,209.6,836.5,211.7,0.87,119
1240,2,22,AdV,40,1.204,1,4,Young,171,246,76,875.1,609,793,232.4,9.55,530
1241,2,22,AdV,41,1.067,1,3,Young,526,590,65,802,250.7,779.4,685.3,10.77,343
1242,2,22,AdV,42,1.905,0,2,Young,727,808,82,799.2,703.6,820.9,241.8,11.44,516
1243,2,22,AdV,43,1.006,1,2,Young,182,230,49,778.9,199.6,892.3,277.5,2.91,328
1244,2,22,AdV,44,0.653,1,3,Young,347,501,155,913.5,289.8,857.1,889.8,14.48,330
1245,2,22,AdV,45,1.087,1,2,Young,552,642,91,869.6,907.1,825.6,228.2,16.34,635
1246,2,22,AdV,46,0.978,1,2,Young,197,258,62,873.1,367,800.9,207.2,4.3,389
1247,2,22,AdV,47,1.538,1,3,Young,544,602,59,822.5,239.1,833.3,451.1,5.38,350
1248,2,22,AdV,48,0.886,1,2,Young,743,808,66,841.3,472.2,806.7,211.8,6.63,497
1249,2,23,dV,33,1.871,0,2,Young,330,399,70,769.8,172.6,883.9,716.9,13.63,436
1250,2,23,dV,34,0.899,0,3,Young,552,633,82,882.5,719.3,837.8,179.5,13.37,571
1251,2,23,dV,35,0.679,0,2,Young,168,214,47,820.3,339.4,888,374.4,1.54,168
1252,2,23,dV,36,1.173,1,4,Young,254,308,55,907.8,383.7,878.6,276.9,2.77,340
1253,2,23,dV,37,2.146,0,3,Young,483,592,110,882.8,310.6,874.8,676.2,9.06,277
1254,2,23,dV,38,3.155,0,3,Young,631,636,6,888.2,672.8,889.3,686.4,0.33,62
1255,2,23,dV,39,1.34,1,3,Young,700,777,78,898.6,682.8,885.2,304.5,9.37,486
1256,2,23,dV,40,1.212,1,3,Young,308,347,40,768.9,286.3,861.2,288.5,1.72,210
1257,2,23,dV,41,2.823,1,4,Young,459,514,56,898.3,297.7,864.3,530.7,5.9,380
1258,2,23,dV,42,1.202,1,2,Young,669,724,56,874.5,566.6,866.6,325.7,6.03,414
1259,2,23,dV,43,1.225,1,3,Young,213,259,47,799.5,232.3,843.9,327.2,2.57,359
1260,2,23,dV,44,0.53,0,1,Young,586,637,52,854.3,352,807.3,317.2,1.24,162
1261,2,23,dV,45,1.745,1,2,Young,814,842,29,793.4,336,812.7,376.5,1.09,85
1262,2,23,dV,46,5.408,0,1,Young,120,164,45,894.8,220,1206.2,102.6,6.55,308
1263,2,23,dV,47,1.28,1,4,Young,290,351,62,1218.8,106.5,821.7,242.8,8.18,518
1264,2,23,dV,48,2.522,0,3,Young,749,803,55,844.4,251,893.2,537.7,7.29,375
1265,2,24,dAV,33,0.717,1,0,Young,913,979,67,908.4,560.1,878.2,289.7,6.81,533
1266,2,24,dAV,34,1.122,1,0,Young,71,107,37,800.8,255.7,761.1,251.2,0.75,99
1267,2,24,dAV,35,0.929,0,0,Young,204,265,62,756.3,264.8,843.9,412.9,4.1,345
1268,2,24,dAV,36,0.979,0,0,Young,415,479,65,846.6,415,816.2,197.3,5.58,424
1269,2,24,dAV,37,0.954,1,0,Young,730,773,44,827.4,223,826.6,406.5,4.68,170
1270,2,24,dAV,38,1.11,1,0,Young,909,977,69,834.9,402.6,836.1,185,5.55,519
1271,2,24,dAV,39,3.275,1,0,Young,185,269,85,731.7,1159.3,863.7,481.1,15.55,629
1272,2,24,dAV,40,1.381,1,0,Young,351,408,58,871.7,483.4,828,334.9,3.83,406
1273,2,24,dAV,41,1.401,1,0,Young,710,767,58,832.1,357.6,824.1,511.6,3.87,272
1274,2,24,dAV,42,0.849,1,0,Young,956,1016,61,826.6,526.7,821.6,339.8,4.69,354
1275,2,24,dAV,43,1.284,1,0,Young,274,334,61,743.3,272.6,865.2,387.7,3.7,265
1276,2,24,dAV,44,0.903,1,0,Young,440,496,57,865.6,391.1,849,583.8,4.81,339
1277,2,24,dAV,45,1.861,0,0,Young,608,657,50,845.5,601.2,830.6,719.4,2.86,266
1278,2,24,dAV,46,1.115,1,0,Young,700,779,80,827.9,737,831.8,227,12.56,611
1279,2,24,dAV,47,0.597,1,0,Young,-31,57,89,798.7,267.1,852.9,874.9,14.7,292
1280,2,24,dAV,48,1.268,1,0,Young,539,620,82,865.7,855.6,848.4,256.1,14.52,600
1281,2,25,V,49,2.111,1,0,Young,994,1024,31,852.3,312.3,833.3,362.5,1.33,105
1282,2,25,V,50,3.337,1,0,Young,390,442,53,792.4,251.4,827.8,408.8,4.06,301
1283,2,25,V,51,1.052,1,0,Young,613,669,57,830.9,454.8,828,299.9,3.92,342
1284,2,25,V,52,1.319,0,0,Young,179,240,62,785.2,368.4,875.8,206.9,4.46,355
1285,2,25,V,53,0.779,1,0,Young,409,485,77,863.5,224.7,836,559.8,8.45,334
1286,2,25,V,54,3.57,1,0,Young,635,709,75,836.8,582,853.1,192.8,9.78,521
1287,2,25,V,55,0.755,1,0,Young,188,237,50,806.1,277.2,921.2,298.7,2.21,217
1288,2,25,V,56,1.063,1,0,Young,709,785,77,945.8,341.7,889.8,679.8,8.41,258
1289,2,25,V,57,2.005,1,0,Young,824,835,12,906.3,659.2,907.2,687.1,0.67,77
1290,2,25,V,58,1.031,1,0,Young,868,962,95,911,675.1,944.3,301.9,9.27,500
1291,2,25,V,59,0.764,1,0,Young,171,223,53,791.4,258.9,947.3,314.2,3.23,307
1292,2,25,V,60,0.965,1,0,Young,582,642,61,947.9,307.1,1038.8,194.4,3.35,221
1293,2,25,V,61,1.085,1,0,Young,24,48,25,933.5,514.2,943.6,553,0.98,110
1294,2,25,V,62,0.882,0,0,Young,219,288,70,948,550.3,869.4,199.8,8.96,501
1295,2,25,V,63,2.966,1,0,Young,528,589,62,879,239,890.2,522.4,7.16,294
1296,2,25,V,64,1.891,1,0,Young,737,806,70,893.4,558.1,872.2,246.7,7.84,457
1297,2,26,A,49,2.253,1,0,Young,-47,16,64,847,273.4,1049.1,343.9,4.17,193
1298,2,26,A,50,1.018,1,0,Young,202,265,64,1066.6,325.3,882.3,192.6,4.84,364
1299,2,26,A,51,2.499,1,0,Young,468,553,86,897.1,202,884.7,874.8,16.27,549
1300,2,26,A,52,1.156,1,0,Young,748,829,82,887,840.6,898.9,271.5,13.81,589
1301,2,26,A,53,2.686,1,0,Young,862,906,45,901.5,291.6,909.4,180.3,2.86,426
1302,2,26,A,54,3.189,1,0,Young,299,374,76,831,247.4,810,735,12.02,434
1303,2,26,A,55,1.983,0,0,Young,484,560,77,821.3,733.7,811,267.1,11.49,566
1304,2,26,A,56,1.278,1,0,Young,249,439,191,805.7,244.1,744.6,433,4.93,646
1305,2,26,A,57,1.755,1,0,Young,563,614,52,747.6,432.4,744.2,271.8,4.07,422
1306,2,26,A,58,1.42,1,0,Young,89,147,59,857.3,208.5,1004.4,334.7,4.24,247
1307,2,26,A,59,0.864,1,0,Young,300,344,45,1007.4,362.1,863.4,215.3,4.61,418
1308,2,26,A,60,1.024,1,0,Young,581,667,87,863,192,871.3,705.4,12.72,266
1309,2,26,A,61,1.252,1,0,Young,785,870,86,859.8,717.2,856.3,183.6,13.21,658
1310,2,26,A,62,4.674,1,0,Young,97,149,53,963.7,228,846.8,208.8,2.24,197
1311,2,26,A,63,1.252,1,0,Young,358,443,86,850,209,860.5,840.3,15.36,504
1312,2,26,A,64,0.811,1,0,Young,549,630,82,862.1,813.7,817.3,217,14.58,676
1313,2,27,AV,49,2.322,1,0,Young,47,108,62,834.2,203.8,838.2,324.3,3.09,158
1314,2,27,AV,50,5.209,0,0,Young,362,443,82,842.2,315.5,849.4,754,10.75,402
1315,2,27,AV,51,1.067,1,0,Young,543,620,78,856.6,745.7,860,256.3,12.04,610
1316,2,27,AV,52,1.057,1,0,Young,979,1036,58,861.2,272.9,816.7,410.2,3.59,209
1317,2,27,AV,53,1.147,0,0,Young,-68,3,72,519,1.1,780.2,175.7,6.59,269
1318,2,27,AV,54,0.817,1,0,Young,157,334,178,775.9,188,822.2,288.4,2.72,612
1319,2,27,AV,55,0.931,1,0,Young,690,730,41,844.7,282.7,914.8,250.5,1.55,208
1320,2,27,AV,56,1.302,1,0,Young,285,326,42,796.9,277.9,848.9,247.6,1.24,300
1321,2,27,AV,57,1.436,1,0,Young,517,542,26,871.1,230.9,832.9,371.5,3.66,299
1322,2,27,AV,58,0.664,1,0,Young,573,577,5,841.9,364.1,839.1,373,0.23,63
1323,2,27,AV,59,3.42,1,0,Young,819,878,60,841.8,378.3,818.6,292,2.24,204
1324,2,27,AV,60,1.663,1,0,Young,296,364,69,804.9,210.9,861.6,593,9.63,404
1325,2,27,AV,61,1.601,1,0,Young,546,619,74,872.4,611.5,872.6,211.7,10.02,623
1326,2,27,AV,62,1.125,1,0,Young,194,246,53,830.3,222.3,891.5,333.5,3.07,329
1327,2,27,AV,63,1.194,1,0,Young,432,502,71,906.6,361.9,839.8,171.4,5.03,418
1328,2,27,AV,64,1.793,1,0,Young,676,734,59,844.4,175.9,861.1,370.2,4.98,334
1329,2,28,AdV,49,2.373,1,3,Young,879,947,69,866.4,378.6,838.8,175.6,5.22,365
1330,2,28,AdV,50,2.849,1,1,Young,167,214,48,828.8,246.2,904.9,349.5,3,302
1331,2,28,AdV,51,1.566,1,4,Young,418,466,49,921.7,370.8,899.5,266.6,2.69,240
1332,2,28,AdV,52,0.796,1,3,Young,823,875,53,906.1,255.2,925.7,345.1,2.33,162
1333,2,28,AdV,53,1.133,1,1,Young,162,351,190,839.8,234.1,839.2,562.9,8.27,554
1334,2,28,AdV,54,0.768,1,4,Young,502,577,76,837.2,555.2,827.4,212.8,8.63,556
1335,2,28,AdV,55,1.702,1,4,Young,328,406,79,859.2,215,883,731.1,12.75,502
1336,2,28,AdV,56,1.475,1,3,Young,535,610,76,895.2,715.7,882.6,228.9,12.04,616
1337,2,28,AdV,57,1.625,1,1,Young,41,201,161,884.8,379.8,832.4,265,3.09,420
1338,2,28,AdV,58,0.775,1,4,Young,268,320,53,834.2,261.5,962.1,208.7,2.75,281
1339,2,28,AdV,59,2.115,1,4,Young,526,594,69,956.1,217,899.2,477.9,6.71,358
1340,2,28,AdV,60,1.487,1,1,Young,756,821,66,898.1,473.4,944.6,237.2,6.05,446
1341,2,28,AdV,61,5.488,0,1,Young,316,372,57,803.7,213.3,929.7,345.5,4.12,294
1342,2,28,AdV,62,1.499,0,4,Young,429,435,7,931.3,378.3,931,391.5,0.33,54
1343,2,28,AdV,63,2.513,1,1,Young,564,610,47,925.3,390.2,900.4,207.3,4.69,496
1344,2,28,AdV,64,1.807,0,3,Young,887,936,50,902.2,186.8,886,307.1,3.1,283
1345,2,29,dAdV,49,1.492,1,2,Young,199,264,66,1119.1,445,878.1,268.6,6.32,392
1346,2,29,dAdV,50,1.073,1,1,Young,498,570,73,890.2,231.8,818.2,656.1,10.64,369
1347,2,29,dAdV,51,1.095,1,4,Young,714,787,74,833.6,679.2,835.1,246.5,10.74,529
1348,2,29,dAdV,52,1.49,0,1,Young,415,458,44,826.4,278.8,808.1,202.4,1.99,218
1349,2,29,dAdV,53,0.753,1,3,Young,873,944,72,822.4,186.5,837.5,523.9,8.52,427
1350,2,29,dAdV,54,1.207,0,2,Young,421,493,73,787.6,213.7,878,444.2,6.09,366
1351,2,29,dAdV,55,0.829,1,3,Young,624,691,68,885.3,424.7,878.9,197.7,5.78,389
1352,2,29,dAdV,56,0.671,1,3,Young,191,240,50,830.4,229.1,951.6,283.9,2.66,324
1353,2,29,dAdV,57,2.497,1,2,Young,433,498,66,978.3,297.6,890.6,606.2,7.87,366
1354,2,29,dAdV,58,0.78,1,4,Young,616,693,78,907.8,631.8,918.7,238.3,9.83,562
1355,2,29,dAdV,59,2.808,0,1,Young,104,130,27,805.9,265.5,874.4,206.2,1.99,215
1356,2,29,dAdV,60,1.272,1,3,Young,321,384,64,856.6,219.9,842.4,458.3,6.06,418
1357,2,29,dAdV,61,1.042,1,1,Young,590,649,60,852.5,452.6,845.3,326.9,3.18,269
1358,2,29,dAdV,62,1.065,1,4,Young,972,1028,57,852.3,328.9,856.2,428.3,2.52,169
1359,2,29,dAdV,63,1.438,1,3,Young,187,243,57,809.8,317.2,839.4,208,2.85,278
1360,2,29,dAdV,64,1.462,1,1,Young,383,432,50,844.9,220.7,840.4,619.6,9.97,345
1361,2,30,dAV,49,1.236,1,0,Young,630,709,80,843.3,654.7,836,227.6,10.64,604
1362,2,30,dAV,50,1.143,1,0,Young,220,266,47,819.6,310,879.7,243.6,2.04,222
1363,2,30,dAV,51,1.632,0,0,Young,420,509,90,885.2,226.3,887.5,609.7,9.6,339
1364,2,30,dAV,52,0.916,1,0,Young,678,751,74,890.7,591.4,887.4,190,10.07,527
1365,2,30,dAV,53,0.797,1,0,Young,250,320,71,939.8,436.4,878.8,234.6,5.26,390
1366,2,30,dAV,54,1.454,1,0,Young,527,597,71,879.9,244.4,924.6,610.9,9.21,421
1367,2,30,dAV,55,1.782,1,0,Young,832,908,77,933.5,597.7,896,208.4,9.79,541
1368,2,30,dAV,56,0.908,1,0,Young,329,394,66,832.1,195.6,885.7,415.7,5.7,343
1369,2,30,dAV,57,1.326,1,0,Young,517,580,64,890.1,424.5,864.5,116.6,7.87,509
1370,2,30,dAV,58,0.793,0,0,Young,919,975,57,866.9,134.8,836.7,263.4,3.36,279
1371,2,30,dAV,59,1.008,1,0,Young,183,469,287,847.2,272.2,863.5,255.5,0.53,677
1372,2,30,dAV,60,1.036,1,0,Young,-39,142,182,788.9,185,777.5,202.4,0.5,415
1373,2,30,dAV,61,1.858,1,0,Young,302,349,48,777,210.7,861.3,275.9,2.29,290
1374,2,30,dAV,62,1.099,1,0,Young,677,724,48,869.3,336.9,865.6,448.4,2.82,315
1375,2,30,dAV,63,0.815,1,0,Young,902,965,64,867.2,486.8,801.2,312.4,4.56,374
1376,2,30,dAV,64,1.313,1,0,Young,166,219,54,824.9,230.5,958.4,290,2.92,272
1377,2,31,dA,49,1.049,1,0,Young,554,611,58,985.5,296,969.5,468.4,4.37,289
1378,2,31,dA,50,1.396,0,0,Young,793,862,70,971.4,486.7,991.3,251.9,5.96,380
1379,2,31,dA,51,1.04,1,0,Young,967,1150,184,990.9,283.1,981.1,320.2,0.97,432
1380,2,31,dA,52,2.093,1,0,Young,248,313,66,1146.5,390.3,871,192.2,7.19,456
1381,2,31,dA,53,2.657,0,0,Young,601,660,60,884.4,221.9,809.1,547,8.32,453
1382,2,31,dA,54,0.958,0,0,Young,830,897,68,822.5,564.7,867.6,237.2,8.27,428
1383,2,31,dA,55,1.147,1,0,Young,-56,102,159,680.4,463.4,941.8,412.7,4.97,506
1384,2,31,dA,56,1.113,0,0,Young,326,387,62,934.5,408.3,879.9,195,5.54,391
1385,2,31,dA,57,1.894,0,0,Young,663,720,58,885.2,192.9,863.9,469.7,7.04,352
1386,2,31,dA,58,1.093,1,0,Young,851,919,69,865.4,473.6,895.1,169.8,7.74,533
1387,2,31,dA,59,4.742,0,0,Young,195,251,57,787.9,253.6,938.9,413.1,4.93,332
1388,2,31,dA,60,2.566,0,0,Young,406,455,50,951.3,440.4,837.1,277,4.66,428
1389,2,31,dA,61,1.072,1,0,Young,178,228,51,832.4,243.7,924,279.7,1.94,206
1390,2,31,dA,62,0.742,1,0,Young,459,525,67,921.4,301.1,881.1,625.7,8.12,383
1391,2,31,dA,63,5.792,0,0,Young,639,712,74,895.6,622.3,896.3,210.9,10.3,609
1392,2,31,dA,64,0.942,1,0,Young,289,323,35,818,218.1,851.1,249.4,1.01,160
1393,2,32,dV,49,3.16,0,4,Young,73,124,52,816.9,263.8,816.7,342.8,2.02,175
1394,2,32,dV,50,1.596,0,3,Young,216,263,48,816.8,354.6,846,258.6,2.51,362
1395,2,32,dV,51,1.318,1,2,Young,63,98,36,805.5,208.4,845.7,246.9,1.24,112
1396,2,32,dV,52,1.228,1,2,Young,221,257,37,845.3,235,816.1,197.3,1.11,174
1397,2,32,dV,53,1.653,0,3,Young,-77,111,189,819.4,227,625.7,195.9,3.68,530
1398,2,32,dV,54,1.363,0,2,Young,245,296,52,642.5,199.3,836.3,222.5,3.65,327
1399,2,32,dV,55,5.004,0,3,Young,675,708,34,865.8,241.6,887.8,252.3,0.49,132
1400,2,32,dV,56,0.557,1,2,Young,175,206,32,793.7,193.2,946.6,225,2.97,266
1401,2,32,dV,57,1.778,1,1,Young,932,966,35,907,221.8,897.8,189.9,0.84,136
1402,2,32,dV,58,1.637,1,1,Young,249,291,43,866.4,324.4,829.5,290.5,1.1,172
1403,2,32,dV,59,1.03,1,1,Young,642,666,25,823.6,278,797.2,237.6,1.15,139
1404,2,32,dV,60,0.63,1,1,Young,63,75,13,802.9,201.8,762.9,210.1,0.78,72
1405,2,32,dV,61,4.714,0,4,Young,186,224,39,759.2,211.9,826.5,242.9,1.49,226
1406,2,32,dV,62,1.574,1,2,Young,486,504,19,848.2,239.2,808.4,259.3,0.9,89
1407,2,32,dV,63,2.783,0,3,Young,898,916,19,812.2,268.7,796.1,304.8,0.97,98
1408,2,32,dV,64,1.323,0,4,Young,153,199,47,800.3,236.1,881.3,229,1.52,138
1409,2,33,A,65,0.785,1,0,Young,842,863,22,890.7,210.3,862.5,180.9,0.92,122
1410,2,33,A,66,1.316,1,0,Young,157,237,81,783.3,477.9,818.5,238.7,6.09,501
1411,2,33,A,67,1.717,1,0,Young,623,636,14,805.7,210.7,770.9,199,0.71,81
1412,2,33,A,68,1.538,0,0,Young,106,188,83,350.2,1461.7,858.8,1036.6,11.8,522
1413,2,33,A,69,2.82,0,0,Young,337,427,91,852.7,1044.8,902.9,251,18.66,837
1414,2,33,A,70,1.225,1,0,Young,873,890,18,897.4,295.2,857.7,286.2,0.77,82
1415,2,33,A,71,2.025,0,0,Young,168,224,57,848.1,382.1,867.9,213.3,4.33,373
1416,2,33,A,72,0.889,1,0,Young,566,589,24,863.4,184.3,844.1,151,0.93,129
1417,2,33,A,73,1.055,0,0,Young,240,282,43,822.2,216.8,878.5,213.3,1.06,189
1418,2,33,A,74,0.896,1,0,Young,173,235,63,595.2,485.8,861.6,273.5,7.26,424
1419,2,33,A,75,2.494,1,0,Young,564,600,37,865,276.3,848.4,245.2,0.86,166
1420,2,33,A,76,0.908,1,0,Young,17,63,47,460.9,1329,387.2,1434.6,2.31,284
1421,2,33,A,77,5.172,0,0,Young,270,380,111,380.8,1467.4,851.8,244.5,27.34,822
1422,2,33,A,78,0.906,0,0,Young,515,554,40,849.8,233.4,833.6,174.6,1.54,308
1423,2,33,A,79,1.654,1,0,Young,259,284,26,832.2,222.4,869,273.8,1.49,162
1424,2,33,A,80,1.699,0,0,Young,164,207,44,839,311.2,944.1,275.9,2.16,266
1425,2,34,AdV,65,0.884,1,2,Young,861,879,19,957.8,276.2,924.1,256.1,0.81,64
1426,2,34,AdV,66,1.667,0,1,Young,1,115,115,774.9,280.7,363.2,1371.7,24.8,496
1427,2,34,AdV,67,0.802,1,1,Young,215,260,46,372.8,1373.2,356.8,1464.1,1.71,209
1428,2,34,AdV,68,1.017,1,1,Young,360,453,94,365.5,1494.1,861.4,329.5,26.04,985
1429,2,34,AdV,69,3.149,0,2,Young,527,580,54,869.4,348.9,882.7,236.7,2.88,418
1430,2,34,AdV,70,1.04,1,1,Young,-79,3,83,815,154,1421.4,99,11.31,307
1431,2,34,AdV,71,0.747,1,2,Young,168,227,60,1432.4,103.4,977.6,273.2,9.46,579
1432,2,34,AdV,72,3.901,1,3,Young,398,435,38,949,283.5,909,245,1.24,224
1433,2,34,AdV,73,1.06,1,3,Young,799,822,24,884.5,238.7,927.1,203.8,1.2,140
1434,2,34,AdV,74,1.331,1,1,Young,294,331,38,760,212.4,811.5,231.1,1.07,199
1435,2,34,AdV,75,1.391,1,4,Young,602,632,31,831.3,225.7,809.2,202.7,0.72,132
1436,2,34,AdV,76,1.093,1,1,Young,811,828,18,810.7,195.6,781.9,176.8,0.72,80
1437,2,34,AdV,77,0.966,1,2,Young,-107,81,189,822.9,208,815.1,242.4,0.9,558
1438,2,34,AdV,78,1.446,1,4,Young,203,243,41,810.7,219.1,884.3,225.9,1.38,201
1439,2,34,AdV,79,3.011,1,2,Young,616,637,22,908.5,217.8,953.5,217.8,0.84,89
1440,2,34,AdV,80,0.823,1,2,Young,946,963,18,938.4,232.3,913.4,219.1,0.58,66
1441,2,35,V,65,2.223,0,0,Young,306,340,35,805,193.5,853.7,194.2,0.91,150
1442,2,35,V,66,6.687,1,0,Young,177,225,49,832.7,201.3,871.3,318.9,3.1,360
1443,2,35,V,67,3.109,0,0,Young,562,583,22,872.1,347.6,839.5,317.3,0.98,104
1444,2,35,V,68,1.03,1,0,Young,957,986,30,849.5,302.5,879.6,293.6,0.6,167
1445,2,35,V,69,1.278,1,0,Young,152,225,74,502,-17.1,856.7,238.2,9.26,544
1446,2,35,V,70,0.708,1,0,Young,586,618,33,884.5,224.9,886.5,203.8,0.54,133
1447,2,35,V,71,1.436,1,0,Young,-21,1,23,819.9,212,737.5,215.5,1.54,117
1448,2,35,V,72,2.899,1,0,Young,443,468,26,747.1,213.1,788.7,182.3,1.11,142
1449,2,35,V,73,1.041,1,0,Young,882,933,52,771.7,186.4,763.9,259.7,1.89,181
1450,2,35,V,74,1.172,1,0,Young,20,247,228,820.2,248.4,801.8,261.2,0.47,364
1451,2,35,V,75,1.416,1,0,Young,346,360,15,802,245.6,795.1,223.3,0.59,56
1452,2,35,V,76,1.526,0,0,Young,534,569,36,801.3,221.5,828.4,219.7,0.51,130
1453,2,35,V,77,1.259,1,0,Young,907,939,33,842.4,202.5,818.7,180.7,0.71,107
1454,2,35,V,78,1.283,1,0,Young,52,99,48,751,192.2,827.5,224.7,1.65,139
1455,2,35,V,79,1.63,0,0,Young,558,593,36,850.6,218.7,881.5,197.6,0.79,164
1456,2,35,V,80,1.404,1,0,Young,827,852,26,912.7,201.8,859.1,196,1.01,115
1457,2,36,dAV,65,1.079,1,0,Young,74,225,152,800.2,186.6,787.9,253.9,1.75,534
1458,2,36,dAV,66,0.793,1,0,Young,506,530,25,787.2,250.3,797.2,173.3,1.99,208
1459,2,36,dAV,67,0.759,1,0,Young,886,1065,180,812.7,216.5,813.8,253.4,0.95,689
1460,2,36,dAV,68,0.994,1,0,Young,-10,19,30,371.9,1464.6,364.8,1497.2,0.6,112
1461,2,36,dAV,69,1.109,1,0,Young,288,469,182,352.1,1503.8,864.2,356.6,25.68,990
1462,2,36,dAV,70,1.496,1,0,Young,606,647,42,872.2,345.9,858.9,284.5,1.59,239
1463,2,36,dAV,71,1.694,1,0,Young,-52,13,66,733.7,32.9,792.7,195.4,4.34,363
1464,2,36,dAV,72,1.091,1,0,Young,292,331,40,792.6,196,839.4,221.3,1.09,201
1465,2,36,dAV,73,0.848,1,0,Young,733,749,17,867.4,202.1,856.6,162.5,1.04,87
1466,2,36,dAV,74,1.21,1,0,Young,29,230,202,823.1,174.6,871.1,259.5,2.36,443
1467,2,36,dAV,75,1.958,1,0,Young,457,499,43,868.5,249.4,844.6,208.9,1.13,191
1468,2,36,dAV,76,0.886,1,0,Young,760,777,18,837.1,195,811.5,192.3,0.48,70
1469,2,36,dAV,77,0.892,1,0,Young,255,294,40,796.3,173.3,829.2,191.6,0.77,203
1470,2,36,dAV,78,0.919,1,0,Young,885,913,29,852.5,222.5,863.2,206.2,0.46,115
1471,2,36,dAV,79,1.341,0,0,Young,228,259,32,786.7,157.4,830.8,189.6,1.17,161
1472,2,36,dAV,80,2.91,0,0,Young,623,651,29,830.9,166.3,817.1,154.9,0.39,112
1473,2,37,AV,65,0.979,1,0,Young,877,894,18,809.2,165,856.7,150.7,0.96,98
