,Unnamed: 0,Participant,Block,Condition,Trial,RT,Correct,Orientation,Agegr,Sacstart,Sacend,Sacduration,Xstart,Ystart,Xend,Yend,Amplitude,Velocity,Larger,Duration
0,65,1,1,AV,1,0.911,1,0,Young,195,258,64,877.5,381.9,1012.1,272.9,3.74,223,False,0.016771300448430494
1,66,1,1,AV,2,2.824,1,0,Young,960,967,8,990.8,261.4,969.5,254.6,0.43,57,False,0.007543859649122807
2,67,1,1,AV,3,1.866,1,0,Young,216,255,40,822.0,260.4,747.9,213.8,1.83,235,False,0.0077872340425531915
3,68,1,1,AV,4,0.771,1,0,Young,157,181,25,851.3,300.9,961.7,275.1,2.16,176,False,0.012272727272727274
4,69,1,1,AV,5,0.953,0,0,Young,688,706,19,938.5,276.2,964.7,257.6,0.68,71,False,0.009577464788732394
5,70,1,1,AV,6,3.722,1,0,Young,134,185,52,761.4,256.7,938.1,293.9,3.42,309,False,0.011067961165048544
6,71,1,1,AV,7,0.673,1,0,Young,455,475,21,960.4,304.9,959.1,276.2,0.74,110,False,0.006727272727272728
7,72,1,1,AV,8,1.063,1,0,Young,857,877,21,967.6,275.5,1002.4,273.8,0.65,90,False,0.007222222222222223
8,73,1,1,AV,9,1.269,1,0,Young,177,222,46,791.6,256.7,916.8,292.0,2.5,303,False,0.00825082508250825
9,74,1,1,AV,10,0.709,0,0,Young,609,613,5,922.9,307.7,925.4,294.8,0.33,46,False,0.0071739130434782614
10,75,1,1,AV,11,0.908,1,0,Young,877,893,17,956.2,302.1,910.5,293.8,0.88,77,False,0.011428571428571429
11,76,1,1,AV,12,0.977,1,0,Young,91,148,58,886.4,365.8,832.2,237.0,3.44,265,False,0.012981132075471698
12,77,1,1,AV,13,6.61,0,0,Young,381,411,31,837.6,230.9,874.6,242.8,0.76,151,False,0.005033112582781457
13,78,1,1,AV,14,0.684,1,0,Young,732,750,19,890.2,240.8,869.2,210.2,0.88,68,False,0.012941176470588235
14,79,1,1,AV,15,0.944,1,0,Young,641,659,19,792.8,245.5,733.0,242.0,1.12,104,False,0.01076923076923077
15,80,1,1,AV,16,0.697,1,0,Young,196,226,31,838.6,221.3,899.3,236.5,1.2,169,False,0.007100591715976331
16,81,1,2,V,1,3.219,1,0,Young,60,65,6,795.6,256.7,796.7,265.4,0.22,54,False,0.004074074074074074
17,82,1,2,V,2,0.781,1,0,Young,173,209,37,793.9,264.0,851.2,275.1,1.1,173,False,0.006358381502890174
18,83,1,2,V,3,5.8,0,0,Young,226,267,42,810.1,232.9,800.6,309.9,1.98,265,False,0.007471698113207547
19,84,1,2,V,4,3.895,1,0,Young,420,457,38,803.9,319.0,788.8,274.0,1.18,250,False,0.004719999999999999
20,85,1,2,V,5,7.668,0,0,Young,896,918,23,807.3,251.3,864.4,239.7,1.11,124,False,0.008951612903225808
21,86,1,2,V,6,2.6,0,0,Young,128,171,44,858.9,257.4,862.1,331.2,1.89,166,False,0.011385542168674698
22,87,1,2,V,7,1.126,1,0,Young,599,610,12,877.6,339.6,839.6,345.4,0.72,72,False,0.01
23,88,1,2,V,8,1.083,0,0,Young,2,225,224,782.7,350.4,789.3,329.1,0.55,585,False,0.0009401709401709403
24,89,1,2,V,9,0.635,1,0,Young,373,411,39,804.3,324.1,848.1,317.3,0.83,183,False,0.00453551912568306
25,90,1,2,V,10,1.869,1,0,Young,988,1009,22,877.1,322.3,918.5,311.1,0.82,103,False,0.007961165048543689
26,91,1,2,V,11,0.841,1,0,Young,162,185,24,813.1,229.6,843.0,319.2,2.36,217,False,0.010875576036866359
27,92,1,2,V,12,0.862,1,0,Young,470,488,19,833.5,299.3,775.5,292.4,1.09,110,False,0.009909090909090909
28,93,1,2,V,13,3.47,0,0,Young,784,803,20,776.8,312.5,836.9,294.9,1.2,113,False,0.010619469026548672
29,94,1,2,V,14,1.042,1,0,Young,55,84,30,756.8,177.6,816.7,281.1,2.88,256,False,0.01125
30,95,1,2,V,15,7.771,1,0,Young,536,556,21,834.7,282.9,806.2,276.3,0.56,80,False,0.007000000000000001
31,96,1,2,V,16,0.86,1,0,Young,-20,159,180,867.8,214.0,812.3,228.6,1.1,426,False,0.002582159624413146
32,97,1,3,dAdV,1,1.249,1,3,Young,608,630,23,810.5,226.6,837.3,223.1,0.51,81,False,0.006296296296296296
33,98,1,3,dAdV,2,0.781,0,4,Young,916,933,18,829.6,230.4,770.1,228.6,1.11,94,False,0.011808510638297874
34,99,1,3,dAdV,3,1.872,1,3,Young,224,260,37,847.6,235.6,847.6,283.3,1.22,204,False,0.005980392156862745
35,100,1,3,dAdV,4,0.816,0,4,Young,883,891,9,835.0,281.9,816.3,285.0,0.36,49,False,0.007346938775510204
36,101,1,3,dAdV,5,4.834,0,1,Young,23,44,22,776.7,219.5,856.5,236.7,1.55,130,False,0.011923076923076923
37,102,1,3,dAdV,6,2.678,0,1,Young,280,303,24,844.4,235.3,892.2,276.6,1.38,158,False,0.008734177215189872
38,103,1,3,dAdV,7,1.712,1,4,Young,142,181,40,779.8,242.6,871.6,245.5,1.71,228,False,0.0075
39,104,1,3,dAdV,8,2.507,1,3,Young,158,204,47,824.9,277.2,938.5,323.8,2.43,278,False,0.008741007194244605
40,105,1,3,dAdV,9,4.463,0,2,Young,510,532,23,947.9,344.3,917.4,318.2,0.87,85,False,0.01023529411764706
41,106,1,3,dAdV,10,0.892,1,3,Young,927,943,17,901.9,333.9,938.2,315.3,0.83,75,False,0.011066666666666666
42,107,1,3,dAdV,11,1.593,0,4,Young,-95,71,167,831.4,307.3,835.6,288.8,0.48,676,False,0.0007100591715976331
43,108,1,3,dAdV,12,2.24,0,3,Young,227,260,34,831.6,280.6,856.1,301.5,0.7,152,False,0.004605263157894736
44,109,1,3,dAdV,13,6.399,1,2,Young,567,581,15,866.4,305.6,838.2,279.1,0.86,85,False,0.01011764705882353
45,110,1,3,dAdV,14,1.026,1,2,Young,90,196,107,814.3,245.3,951.2,317.6,3.15,350,False,0.009
46,111,1,3,dAdV,15,0.826,1,1,Young,646,668,23,956.3,318.3,970.3,286.4,0.86,120,False,0.007166666666666667
47,112,1,3,dAdV,16,4.548,1,4,Young,259,291,33,846.5,205.5,862.7,232.8,0.76,160,False,0.00475
48,113,1,4,A,1,6.073,0,0,Young,600,607,8,868.4,260.2,856.7,242.5,0.5,65,False,0.007692307692307693
49,114,1,4,A,2,0.729,1,0,Young,843,847,5,859.8,246.7,861.0,256.8,0.26,48,False,0.005416666666666667
50,115,1,4,A,3,9.896,1,0,Young,987,1008,22,859.4,259.3,911.0,248.3,1.0,96,False,0.010416666666666666
51,116,1,4,A,4,4.121,1,0,Young,195,219,25,766.6,226.2,815.4,261.1,1.28,157,False,0.008152866242038218
52,117,1,4,A,5,4.391,0,0,Young,757,767,11,830.9,252.5,819.0,224.4,0.75,81,False,0.009259259259259259
53,118,1,4,A,6,0.83,1,0,Young,511,529,19,862.9,270.8,895.6,257.2,0.7,83,False,0.008433734939759036
54,119,1,4,A,7,6.302,1,0,Young,957,969,13,899.2,262.8,858.5,268.6,0.77,76,False,0.010131578947368422
55,120,1,4,A,8,6.631,1,0,Young,156,214,59,793.9,323.1,968.0,328.3,3.24,276,False,0.01173913043478261
56,121,1,4,A,9,1.048,1,0,Young,60,77,18,846.1,238.3,786.5,263.2,1.28,104,False,0.012307692307692308
57,122,1,4,A,10,4.84,0,0,Young,217,250,34,791.7,259.0,824.3,251.7,0.64,145,False,0.004413793103448276
58,123,1,4,A,11,1.912,1,0,Young,626,642,17,837.7,257.8,797.0,248.0,0.8,66,False,0.012121212121212121
59,124,1,4,A,12,0.759,1,0,Young,971,989,19,802.4,255.0,861.6,257.1,1.1,97,False,0.011340206185567012
60,125,1,4,A,13,3.355,1,0,Young,364,378,15,830.5,293.6,865.5,313.7,0.83,79,False,0.01050632911392405
61,126,1,4,A,14,1.91,1,0,Young,751,771,21,849.3,302.5,872.3,248.8,1.44,122,False,0.01180327868852459
62,127,1,4,A,15,0.819,0,0,Young,234,257,24,850.1,293.7,864.7,360.3,1.72,173,False,0.009942196531791908
63,128,1,4,A,16,0.652,1,0,Young,622,645,24,865.6,370.0,897.5,346.8,0.84,99,False,0.008484848484848484
64,129,1,5,dA,1,3.243,0,0,Young,210,245,36,791.8,279.1,859.6,286.3,1.27,182,False,0.006978021978021978
65,130,1,5,dA,2,4.256,1,0,Young,623,653,31,872.1,267.5,867.5,239.0,0.74,122,False,0.0060655737704918035
66,131,1,5,dA,3,0.833,0,0,Young,962,978,17,870.3,223.8,912.9,204.3,0.94,96,False,0.009791666666666666
67,132,1,5,dA,4,1.529,1,0,Young,161,185,25,795.2,244.8,902.6,258.5,2.03,185,False,0.010972972972972972
68,133,1,5,dA,5,9.392,0,0,Young,721,732,12,882.8,275.2,899.9,258.7,0.53,63,False,0.008412698412698413
69,134,1,5,dA,6,1.193,0,0,Young,-31,26,58,860.5,200.5,946.3,350.3,4.16,244,False,0.017049180327868854
70,135,1,5,dA,7,0.759,1,0,Young,196,243,48,953.5,372.1,876.2,254.7,3.33,344,False,0.009680232558139535
71,136,1,5,dA,8,1.648,0,0,Young,497,513,17,871.6,233.2,817.1,231.2,1.02,92,False,0.011086956521739131
72,137,1,5,dA,9,1.426,0,0,Young,788,838,51,822.0,240.7,838.7,364.7,3.18,160,False,0.019875
73,138,1,5,dA,10,2.679,0,0,Young,142,200,59,856.3,101.8,962.8,276.3,4.91,404,False,0.012153465346534654
74,139,1,5,dA,11,5.934,0,0,Young,302,342,41,968.3,290.9,979.0,244.6,1.21,227,False,0.005330396475770925
75,140,1,5,dA,12,1.52,1,0,Young,849,858,10,938.2,269.2,911.6,263.8,0.52,63,False,0.008253968253968255
76,141,1,5,dA,13,0.573,1,0,Young,965,970,6,919.4,269.9,923.8,284.8,0.39,51,False,0.007647058823529412
77,142,1,5,dA,14,3.445,0,0,Young,302,349,48,841.9,257.3,867.7,384.0,3.26,338,False,0.009644970414201183
78,143,1,5,dA,15,2.761,0,0,Young,514,572,59,878.4,412.7,857.4,209.1,5.21,430,False,0.012116279069767442
79,144,1,5,dA,16,4.603,1,0,Young,919,1022,104,855.5,220.0,874.5,709.9,12.12,400,False,0.030299999999999997
80,145,1,6,AdV,1,5.656,1,2,Young,179,231,53,832.5,265.1,930.2,381.5,3.48,243,False,0.014320987654320988
81,146,1,6,AdV,2,1.256,0,4,Young,362,419,58,928.9,410.6,897.4,262.5,3.81,307,False,0.012410423452768729
82,147,1,6,AdV,3,10.18,0,3,Young,606,710,105,894.9,268.8,938.1,870.4,14.55,410,False,0.035487804878048784
83,148,1,6,AdV,4,3.194,1,3,Young,905,982,78,950.4,842.9,902.2,287.3,13.5,631,False,0.021394611727416798
84,149,1,6,AdV,5,2.004,1,4,Young,151,282,132,846.4,391.8,867.5,243.4,3.81,448,False,0.008504464285714285
85,150,1,6,AdV,6,2.454,0,3,Young,539,668,130,857.7,241.8,904.0,926.4,16.44,339,False,0.04849557522123894
86,151,1,6,AdV,7,3.572,1,1,Young,842,929,88,904.5,884.1,843.7,220.7,16.04,582,False,0.02756013745704467
87,152,1,6,AdV,8,1.725,0,4,Young,-17,2,20,866.7,326.1,932.6,351.3,1.38,125,False,0.01104
88,153,1,6,AdV,9,0.963,0,2,Young,211,252,42,921.0,351.7,857.9,242.8,3.02,304,False,0.00993421052631579
89,154,1,6,AdV,10,2.96,1,4,Young,355,360,6,858.1,231.7,858.4,244.1,0.32,41,False,0.007804878048780488
90,155,1,6,AdV,11,0.648,1,3,Young,439,665,227,850.4,253.9,862.3,468.8,5.44,739,False,0.0073612990527740195
91,156,1,6,AdV,12,0.813,1,1,Young,792,869,78,892.8,899.4,849.2,370.3,12.68,558,False,0.02272401433691756
92,157,1,6,AdV,13,0.944,0,1,Young,944,978,35,859.8,373.8,837.8,316.5,1.51,218,False,0.006926605504587156
93,158,1,6,AdV,14,3.552,1,1,Young,379,490,112,844.9,257.7,883.1,778.0,12.76,263,False,0.048517110266159694
94,159,1,6,AdV,15,1.07,1,4,Young,644,722,79,876.0,738.2,867.1,243.5,12.19,629,False,0.019379968203497615
95,160,1,6,AdV,16,2.382,0,2,Young,391,475,85,842.1,277.5,905.4,740.3,11.44,383,False,0.029869451697127937
96,161,1,7,dV,1,3.038,1,3,Young,641,716,76,922.4,744.6,915.1,227.6,12.73,639,False,0.01992175273865415
97,162,1,7,dV,2,2.744,0,2,Young,163,188,26,808.2,318.7,914.9,245.3,2.73,234,False,0.011666666666666667
98,163,1,7,dV,3,5.571,1,2,Young,362,483,122,908.1,260.0,879.5,869.2,14.72,369,False,0.03989159891598916
99,164,1,7,dV,4,0.803,1,2,Young,629,721,93,876.6,842.1,854.7,220.3,15.1,675,False,0.02237037037037037
100,165,1,7,dV,5,4.268,0,1,Young,322,386,65,843.2,250.1,939.9,449.1,5.37,319,False,0.01683385579937304
101,166,1,7,dV,6,4.068,1,4,Young,550,610,61,942.9,447.8,900.5,274.5,4.47,358,False,0.012486033519553071
102,167,1,7,dV,7,1.075,0,3,Young,187,239,53,1026.2,385.4,875.2,227.1,4.92,349,False,0.014097421203438395
103,168,1,7,dV,8,1.075,1,2,Young,534,616,83,863.7,234.8,869.0,544.7,7.81,229,False,0.03410480349344978
104,169,1,7,dV,9,2.608,0,3,Young,768,840,73,873.7,548.5,852.5,205.8,8.65,604,False,0.014321192052980132
105,170,1,7,dV,10,7.473,0,1,Young,-9,54,64,832.0,274.3,835.9,475.9,5.1,205,False,0.024878048780487803
106,171,1,7,dV,11,4.182,1,3,Young,236,299,64,838.7,502.0,824.1,302.2,5.05,396,False,0.012752525252525251
107,172,1,7,dV,12,0.781,1,3,Young,565,626,62,834.7,306.9,863.4,581.0,6.88,362,False,0.019005524861878453
108,173,1,7,dV,13,1.816,0,1,Young,745,811,67,877.6,605.9,855.7,296.9,7.73,501,False,0.015429141716566867
109,174,1,7,dV,14,1.591,1,1,Young,27,66,40,874.5,333.6,995.1,397.4,2.76,150,False,0.0184
110,175,1,7,dV,15,1.518,1,4,Young,239,300,62,986.0,397.2,770.8,189.8,6.64,442,False,0.01502262443438914
111,176,1,7,dV,16,0.968,1,4,Young,528,655,128,774.1,198.4,815.4,764.9,13.92,245,True,0.05681632653061224
112,177,1,8,dAV,1,0.805,1,0,Young,754,832,79,819.0,764.0,762.9,262.2,12.34,638,False,0.01934169278996865
113,178,1,8,dAV,2,1.092,1,0,Young,24,76,53,1114.0,1564.7,1302.8,1640.6,3.18,187,False,0.017005347593582888
114,179,1,8,dAV,3,1.546,1,0,Young,242,394,153,1309.2,1621.7,864.2,391.2,26.31,948,False,0.027753164556962025
115,180,1,8,dAV,4,5.446,1,0,Young,452,512,61,876.9,403.1,876.5,212.5,4.86,421,False,0.01154394299287411
116,181,1,8,dAV,5,0.889,1,0,Young,789,865,77,881.2,244.5,906.2,568.1,8.14,307,False,0.02651465798045603
117,182,1,8,dAV,6,1.246,1,0,Young,202,249,48,810.7,247.4,900.3,324.0,2.57,248,False,0.010362903225806451
118,183,1,8,dAV,7,0.936,1,0,Young,403,424,22,914.2,370.0,896.0,424.4,1.42,91,False,0.015604395604395603
119,184,1,8,dAV,8,2.329,1,0,Young,458,560,103,885.4,392.5,932.5,926.9,12.75,354,False,0.036016949152542374
120,185,1,8,dAV,9,1.095,0,0,Young,634,695,62,949.5,924.0,889.0,480.6,10.55,571,False,0.018476357267950966
121,186,1,8,dAV,10,3.847,1,0,Young,752,797,46,895.8,463.0,870.1,325.2,3.52,355,False,0.009915492957746479
122,187,1,8,dAV,11,0.759,1,0,Young,-35,137,173,849.5,318.7,821.6,327.0,0.56,527,False,0.001062618595825427
123,188,1,8,dAV,12,0.583,1,0,Young,513,574,62,819.8,340.7,852.8,528.5,4.75,351,False,0.013532763532763533
124,189,1,8,dAV,13,1.804,1,0,Young,643,690,48,854.7,527.4,849.2,362.0,4.15,392,False,0.010586734693877551
125,190,1,8,dAV,14,1.006,1,0,Young,106,132,27,841.5,295.0,894.9,262.0,1.3,92,False,0.014130434782608696
126,191,1,8,dAV,15,0.71,1,0,Young,207,244,38,884.2,259.1,952.2,251.0,1.29,220,False,0.005863636363636363
127,192,1,8,dAV,16,1.997,1,0,Young,426,506,81,968.8,240.2,980.5,808.9,13.89,325,False,0.04273846153846154
128,193,1,9,V,17,2.302,1,0,Young,599,657,59,972.9,786.9,947.0,347.7,10.71,617,False,0.0173581847649919
129,194,1,9,V,18,2.705,0,0,Young,847,885,39,937.6,333.2,942.2,239.3,2.41,282,False,0.008546099290780143
130,195,1,9,V,19,2.472,1,0,Young,440,572,133,842.5,254.0,920.8,730.9,11.83,292,False,0.040513698630136985
131,196,1,9,V,20,0.732,0,0,Young,696,765,70,891.5,663.3,835.3,283.1,9.49,467,False,0.02032119914346895
132,197,1,9,V,21,0.8,1,0,Young,943,993,51,849.6,295.9,803.6,232.2,1.84,190,False,0.00968421052631579
133,198,1,9,V,22,0.976,1,0,Young,111,148,38,842.6,393.9,827.1,347.5,1.21,187,False,0.006470588235294118
134,199,1,9,V,23,0.597,1,0,Young,262,320,59,822.3,326.7,990.9,269.0,3.47,310,False,0.011193548387096774
135,200,1,9,V,24,1.655,1,0,Young,778,972,195,966.4,280.3,1024.8,335.8,1.79,367,False,0.004877384196185286
136,201,1,9,V,25,0.685,1,0,Young,435,497,63,825.2,261.0,894.4,473.0,5.52,301,False,0.018338870431893688
137,202,1,9,V,26,2.466,0,0,Young,596,661,66,896.1,500.1,856.3,275.7,5.71,420,False,0.013595238095238096
138,203,1,9,V,27,3.205,0,0,Young,284,309,26,800.4,247.7,675.7,191.7,2.73,218,False,0.012522935779816514
139,204,1,9,V,28,3.557,0,0,Young,576,768,193,684.9,207.7,795.3,231.0,2.14,618,False,0.0034627831715210357
140,205,1,9,V,29,0.642,0,0,Young,985,1023,39,833.4,235.1,847.2,175.2,1.56,190,False,0.008210526315789474
141,206,1,9,V,30,1.518,0,0,Young,186,230,45,850.2,379.4,814.4,286.5,2.46,211,False,0.011658767772511848
142,207,1,9,V,31,2.193,1,0,Young,428,535,108,816.3,283.5,907.4,787.4,12.42,229,True,0.05423580786026201
143,208,1,9,V,32,0.873,1,0,Young,675,749,75,905.2,718.2,862.1,304.4,10.24,602,False,0.01700996677740864
144,209,1,10,A,17,2.092,1,0,Young,113,147,35,825.3,321.0,836.5,300.2,0.57,137,False,0.004160583941605839
145,210,1,10,A,18,1.101,0,0,Young,575,596,22,822.1,274.4,892.1,254.4,1.4,124,False,0.01129032258064516
146,211,1,10,A,19,5.018,0,0,Young,822,936,115,893.7,255.7,892.2,507.1,6.36,282,False,0.022553191489361704
147,212,1,10,A,20,1.182,1,0,Young,960,990,31,913.5,553.4,897.0,652.4,2.44,124,False,0.01967741935483871
148,213,1,10,A,21,2.615,0,0,Young,195,260,66,988.7,476.8,892.3,259.0,5.8,408,False,0.014215686274509804
149,214,1,10,A,22,1.074,0,0,Young,505,621,117,908.0,286.2,935.3,724.1,10.81,354,False,0.03053672316384181
150,215,1,10,A,23,3.395,0,0,Young,771,846,76,933.8,721.8,924.9,238.5,11.93,607,False,0.019654036243822077
151,216,1,10,A,24,0.945,0,0,Young,190,242,53,803.8,365.4,814.4,246.9,3.03,440,False,0.006886363636363636
152,217,1,10,A,25,0.529,1,0,Young,486,607,122,803.3,248.7,966.2,902.2,15.98,330,False,0.048424242424242425
153,218,1,10,A,26,2.683,0,0,Young,663,738,76,928.7,822.6,844.2,294.9,12.92,321,False,0.04024922118380062
154,219,1,10,A,27,0.683,1,0,Young,817,869,53,865.6,323.9,824.6,208.7,3.05,425,False,0.007176470588235294
155,220,1,10,A,28,2.738,1,0,Young,226,265,40,845.9,267.0,916.4,278.1,1.34,198,False,0.006767676767676768
156,221,1,10,A,29,0.796,1,0,Young,435,459,25,938.5,298.7,974.3,403.3,2.74,190,False,0.014421052631578949
157,222,1,10,A,30,8.538,0,0,Young,483,565,83,963.6,431.5,971.2,930.8,11.85,264,False,0.044886363636363634
158,223,1,10,A,31,6.021,0,0,Young,739,822,84,979.8,917.3,923.2,212.9,16.96,726,False,0.023360881542699725
159,224,1,10,A,32,0.752,1,0,Young,335,378,44,831.7,265.7,912.0,254.3,1.53,182,False,0.008406593406593407
160,225,1,11,AV,17,2.378,1,0,Young,547,659,113,930.1,271.4,895.6,801.3,12.94,284,False,0.04556338028169014
161,226,1,11,AV,18,0.624,0,0,Young,780,859,80,913.7,785.6,921.2,255.2,12.98,627,False,0.020701754385964912
162,227,1,11,AV,19,0.974,1,0,Young,118,187,70,1024.2,433.2,836.3,244.7,5.93,279,False,0.02125448028673835
163,228,1,11,AV,20,0.9,1,0,Young,407,547,141,840.7,267.9,824.6,880.1,14.75,365,False,0.04041095890410959
164,229,1,11,AV,21,2.099,1,0,Young,681,764,84,832.8,854.3,774.7,204.7,15.78,644,False,0.02450310559006211
165,230,1,11,AV,22,1.466,1,0,Young,57,240,184,205.9,1357.5,836.9,323.4,24.92,481,True,0.051808731808731814
166,231,1,11,AV,23,0.935,1,0,Young,364,396,33,849.5,328.0,883.5,278.0,1.43,227,False,0.006299559471365638
167,232,1,11,AV,24,5.133,0,0,Young,606,656,51,882.0,277.0,876.0,506.0,5.78,320,False,0.018062500000000002
168,233,1,11,AV,25,4.605,0,0,Young,818,869,52,883.1,543.7,911.1,314.9,5.77,434,False,0.013294930875576035
169,234,1,11,AV,26,1.093,1,0,Young,178,231,54,794.6,265.6,897.0,371.6,3.31,285,False,0.011614035087719299
170,235,1,11,AV,27,1.081,1,0,Young,435,483,49,906.7,401.5,869.7,283.8,3.07,358,False,0.008575418994413407
171,236,1,11,AV,28,0.653,1,0,Young,573,690,118,869.8,268.7,913.6,754.4,11.96,281,False,0.042562277580071174
172,237,1,11,AV,29,0.778,0,0,Young,850,922,73,920.9,763.9,877.8,338.1,10.44,634,False,0.016466876971608833
173,238,1,11,AV,30,1.655,1,0,Young,192,242,51,837.0,266.0,942.4,343.8,2.79,319,False,0.008746081504702194
174,239,1,11,AV,31,3.714,1,0,Young,401,466,66,952.1,358.5,926.8,194.6,4.22,371,False,0.01137466307277628
175,240,1,11,AV,32,1.986,0,0,Young,670,764,95,929.0,224.6,961.7,770.0,13.41,364,False,0.03684065934065934
176,241,1,12,AdV,17,0.663,1,1,Young,928,1009,82,974.7,766.7,944.0,257.0,12.52,589,False,0.02125636672325976
177,242,1,12,AdV,18,1.142,1,2,Young,18,39,22,823.3,259.0,771.4,232.5,1.18,96,False,0.012291666666666666
178,243,1,12,AdV,19,2.572,1,2,Young,205,254,50,784.0,232.6,915.4,251.0,2.49,229,False,0.010873362445414848
179,244,1,12,AdV,20,3.037,1,3,Young,514,595,82,933.2,262.1,958.6,650.6,9.68,264,False,0.03666666666666667
180,245,1,12,AdV,21,0.934,1,3,Young,714,790,77,968.5,652.3,949.7,243.7,10.18,497,False,0.020482897384305834
181,246,1,12,AdV,22,4.476,1,2,Young,-88,110,199,806.6,391.8,834.7,335.9,1.51,403,False,0.0037468982630272955
182,247,1,12,AdV,23,0.804,1,4,Young,255,302,48,855.3,350.2,1000.5,315.1,2.84,309,False,0.00919093851132686
183,248,1,12,AdV,24,0.998,1,4,Young,750,765,16,1007.7,330.7,964.1,336.8,0.83,80,False,0.010374999999999999
184,249,1,12,AdV,25,7.545,0,3,Young,141,157,17,281.2,1344.7,239.4,1319.6,0.81,74,False,0.010945945945945947
185,250,1,12,AdV,26,1.482,0,1,Young,510,606,97,233.0,1335.8,958.4,342.2,24.96,664,False,0.037590361445783135
186,251,1,12,AdV,27,1.162,1,4,Young,701,743,43,952.1,348.9,903.0,271.5,2.18,295,False,0.007389830508474577
187,252,1,12,AdV,28,0.962,1,4,Young,23,219,197,988.4,403.1,972.2,425.6,0.64,276,False,0.002318840579710145
188,253,1,12,AdV,29,1.656,1,2,Young,403,467,65,980.0,424.4,760.1,201.0,7.0,450,False,0.015555555555555555
189,254,1,12,AdV,30,0.853,1,3,Young,708,800,93,753.9,214.3,818.7,807.1,14.51,413,False,0.03513317191283293
190,255,1,12,AdV,31,0.66,1,1,Young,933,1012,80,823.9,812.4,753.8,248.6,13.79,584,False,0.023613013698630135
191,256,1,12,AdV,32,0.869,0,4,Young,438,470,33,795.8,245.4,849.9,279.1,1.33,91,False,0.014615384615384617
192,257,1,13,dAdV,17,1.068,1,3,Young,599,791,193,853.1,271.6,829.5,205.1,1.77,371,False,0.00477088948787062
193,258,1,13,dAdV,18,2.28,0,3,Young,72,83,12,813.9,237.6,850.9,247.9,0.74,77,False,0.00961038961038961
194,259,1,13,dAdV,19,0.894,1,4,Young,387,431,45,860.8,281.5,905.4,492.4,5.4,254,False,0.02125984251968504
195,260,1,13,dAdV,20,3.375,1,4,Young,586,654,69,911.2,504.0,871.4,242.5,6.65,370,False,0.017972972972972973
196,261,1,13,dAdV,21,2.258,1,4,Young,94,225,132,1038.8,401.2,821.7,257.2,5.45,498,False,0.010943775100401607
197,262,1,13,dAdV,22,1.825,1,4,Young,610,656,47,832.1,271.3,837.8,366.8,2.44,229,False,0.010655021834061135
198,263,1,13,dAdV,23,0.943,1,1,Young,749,797,49,840.6,384.9,827.3,264.1,3.09,262,False,0.011793893129770992
199,264,1,13,dAdV,24,0.606,1,1,Young,177,227,51,799.2,379.1,957.1,308.6,3.44,239,False,0.014393305439330545
200,265,1,13,dAdV,25,1.217,1,3,Young,481,560,80,967.5,291.3,941.0,669.8,9.39,373,False,0.02517426273458445
201,266,1,13,dAdV,26,0.753,1,1,Young,661,731,71,942.6,659.3,958.9,328.0,8.22,519,False,0.015838150289017344
202,267,1,13,dAdV,27,4.041,0,3,Young,380,448,69,817.5,253.5,743.4,557.2,7.74,393,False,0.01969465648854962
203,268,1,13,dAdV,28,0.729,1,1,Young,593,653,61,759.8,559.2,802.5,308.3,6.33,412,False,0.015364077669902913
204,269,1,13,dAdV,29,0.662,1,4,Young,958,1097,140,817.5,311.1,793.2,350.7,1.1,288,False,0.0038194444444444448
205,270,1,13,dAdV,30,0.89,1,4,Young,204,225,22,804.7,321.6,885.1,307.6,1.54,134,False,0.011492537313432836
206,271,1,13,dAdV,31,4.219,0,4,Young,431,545,115,869.0,292.5,875.0,734.2,10.87,240,False,0.04529166666666666
207,272,1,13,dAdV,32,0.976,1,3,Young,554,564,11,861.8,709.5,866.9,677.5,0.77,96,False,0.008020833333333333
208,273,1,14,dAV,17,2.36,1,0,Young,600,663,64,874.9,634.7,856.5,366.7,6.66,409,False,0.01628361858190709
209,274,1,14,dAV,18,0.769,1,0,Young,769,813,45,870.2,346.1,857.6,264.0,2.11,314,False,0.006719745222929936
210,275,1,14,dAV,19,0.635,1,0,Young,376,457,82,865.4,296.0,856.4,680.7,9.52,277,False,0.03436823104693141
211,276,1,14,dAV,20,1.425,1,0,Young,580,648,69,855.3,635.5,837.1,279.9,8.86,499,False,0.017755511022044087
212,277,1,14,dAV,21,0.885,1,0,Young,216,267,52,947.2,362.7,915.0,256.8,2.77,224,False,0.01236607142857143
213,278,1,14,dAV,22,4.199,1,0,Young,390,626,237,914.3,249.5,980.0,671.3,10.55,275,False,0.038363636363636364
214,279,1,14,dAV,23,1.027,1,0,Young,671,761,91,952.8,612.4,955.9,311.4,7.52,261,False,0.028812260536398467
215,280,1,14,dAV,24,1.305,1,0,Young,461,511,51,813.2,280.5,893.6,375.6,2.85,182,False,0.01565934065934066
216,281,1,14,dAV,25,4.094,0,0,Young,590,614,25,899.8,387.4,873.3,293.2,2.45,222,False,0.011036036036036036
217,282,1,14,dAV,26,2.695,1,0,Young,712,737,26,874.6,309.8,845.9,242.4,1.81,200,False,0.00905
218,283,1,14,dAV,27,0.969,1,0,Young,952,1133,182,846.5,259.7,942.0,823.1,13.82,342,False,0.0404093567251462
219,284,1,14,dAV,28,1.918,1,0,Young,331,378,48,823.2,235.8,876.6,310.3,2.15,218,False,0.009862385321100916
220,285,1,14,dAV,29,0.634,1,0,Young,449,544,96,884.9,343.6,882.6,345.0,0.06,210,False,0.0002857142857142857
221,286,1,14,dAV,30,2.008,1,0,Young,175,228,54,856.1,258.9,1069.9,321.6,4.29,375,False,0.01144
222,287,1,14,dAV,31,7.222,0,0,Young,347,392,46,1080.9,338.3,906.6,272.9,3.65,241,False,0.015145228215767635
223,288,1,14,dAV,32,0.881,1,0,Young,595,627,33,894.9,297.6,875.4,459.3,4.11,214,False,0.019205607476635515
224,289,1,15,dA,17,3.127,0,0,Young,743,765,23,882.6,479.2,862.0,414.0,1.68,159,False,0.010566037735849056
225,290,1,15,dA,18,1.664,1,0,Young,915,969,55,873.5,424.1,842.2,303.0,3.13,219,False,0.014292237442922373
226,291,1,15,dA,19,9.676,0,0,Young,331,354,24,806.9,219.3,878.4,292.8,2.31,178,False,0.012977528089887641
227,292,1,15,dA,20,0.813,1,0,Young,597,673,77,869.3,323.0,871.2,688.0,9.02,222,False,0.04063063063063063
228,293,1,15,dA,21,0.784,1,0,Young,700,802,103,872.8,690.7,839.1,349.0,8.45,277,False,0.03050541516245487
229,294,1,15,dA,22,0.857,1,0,Young,834,873,40,847.7,343.7,841.5,285.4,1.49,255,False,0.005843137254901961
230,295,1,15,dA,23,1.612,0,0,Young,171,231,61,799.0,387.7,755.6,172.3,5.56,434,False,0.012811059907834101
231,296,1,15,dA,24,1.128,1,0,Young,543,693,151,744.3,182.2,812.1,544.5,9.22,264,False,0.03492424242424243
232,297,1,15,dA,25,1.274,0,0,Young,789,866,78,829.9,525.0,803.6,129.7,10.01,548,False,0.018266423357664232
233,298,1,15,dA,26,5.331,0,0,Young,424,535,112,797.3,251.7,846.3,680.5,10.66,226,False,0.047168141592920355
234,299,1,15,dA,27,0.785,1,0,Young,594,667,74,853.5,658.7,778.0,219.5,11.01,608,False,0.018108552631578945
235,300,1,15,dA,28,1.389,0,0,Young,184,237,54,969.7,401.8,842.8,243.8,4.67,339,False,0.013775811209439527
236,301,1,15,dA,29,1.19,0,0,Young,497,590,94,837.3,234.0,818.2,603.7,9.26,222,False,0.04171171171171171
237,302,1,15,dA,30,0.821,1,0,Young,663,740,78,829.6,604.9,805.1,228.2,9.44,480,False,0.019666666666666666
238,303,1,15,dA,31,0.794,1,0,Young,-58,112,171,812.9,237.0,830.8,285.9,1.3,336,False,0.003869047619047619
239,304,1,15,dA,32,6.414,0,0,Young,244,281,38,835.4,305.4,925.7,322.7,1.74,176,False,0.009886363636363636
240,305,1,16,dV,17,1.0,0,3,Young,649,680,32,943.3,289.6,941.8,266.4,0.6,138,False,0.004347826086956522
241,306,1,16,dV,18,1.159,0,1,Young,101,122,22,989.4,366.7,917.4,369.6,1.34,104,False,0.012884615384615385
242,307,1,16,dV,19,4.489,0,1,Young,245,297,53,936.0,372.9,873.6,217.3,4.15,387,False,0.010723514211886305
243,308,1,16,dV,20,6.301,0,1,Young,157,231,75,416.7,10.9,866.1,263.8,10.49,573,False,0.018307155322862128
244,309,1,16,dV,21,1.878,1,4,Young,533,556,24,865.5,264.7,902.2,210.2,1.56,131,False,0.011908396946564885
245,310,1,16,dV,22,1.972,1,2,Young,140,181,42,766.8,214.2,872.8,255.8,2.25,303,False,0.007425742574257425
246,311,1,16,dV,23,1.01,1,3,Young,664,682,19,894.5,270.6,925.7,253.9,0.72,78,False,0.00923076923076923
247,312,1,16,dV,24,3.236,1,3,Young,968,978,11,909.8,244.4,877.5,229.6,0.71,75,False,0.009466666666666667
248,313,1,16,dV,25,1.185,1,4,Young,222,245,24,816.9,246.9,830.7,292.9,1.21,119,False,0.010168067226890756
249,314,1,16,dV,26,2.562,0,4,Young,729,745,17,832.5,291.7,877.2,285.4,0.85,82,False,0.010365853658536586
250,315,1,16,dV,27,0.678,1,2,Young,59,84,26,777.7,249.5,825.6,272.0,1.06,101,False,0.010495049504950496
251,316,1,16,dV,28,4.105,0,3,Young,277,309,33,827.4,268.9,848.1,313.6,1.21,166,False,0.007289156626506024
252,317,1,16,dV,29,1.343,0,1,Young,781,817,37,855.7,317.2,845.2,289.9,0.72,149,False,0.004832214765100671
253,318,1,16,dV,30,2.708,1,4,Young,-93,140,234,777.7,277.0,813.2,254.8,0.87,542,False,0.0016051660516605167
254,319,1,16,dV,31,0.981,1,2,Young,692,744,53,827.8,278.1,872.3,259.1,0.96,129,False,0.007441860465116279
255,320,1,16,dV,32,1.073,1,3,Young,-4,183,188,1090.0,318.4,814.3,315.5,5.13,359,False,0.014289693593314763
256,321,1,17,A,33,2.208,0,0,Young,330,389,60,815.8,300.2,820.0,174.7,3.22,323,False,0.009969040247678019
257,322,1,17,A,34,0.614,0,0,Young,736,761,26,812.3,184.6,819.7,227.4,1.11,132,False,0.00840909090909091
258,323,1,17,A,35,0.923,0,0,Young,159,194,36,806.1,230.0,846.6,294.3,1.81,217,False,0.008341013824884794
259,324,1,17,A,36,5.499,0,0,Young,516,537,22,874.9,309.3,923.9,277.2,1.23,126,False,0.009761904761904762
260,325,1,17,A,37,0.982,1,0,Young,198,268,71,438.1,22.2,880.3,231.9,9.76,514,False,0.018988326848249026
261,326,1,17,A,38,1.461,1,0,Young,610,632,23,872.5,239.6,911.9,239.8,0.74,76,False,0.009736842105263158
262,327,1,17,A,39,4.488,1,0,Young,872,884,13,908.5,238.7,875.0,251.8,0.71,70,False,0.010142857142857143
263,328,1,17,A,40,2.59,0,0,Young,91,115,25,829.1,268.9,728.5,292.8,1.97,165,False,0.011939393939393939
264,329,1,17,A,41,4.418,0,0,Young,212,253,42,742.0,291.4,836.1,309.0,1.8,239,False,0.007531380753138075
265,330,1,17,A,42,2.959,0,0,Young,512,522,11,873.3,304.6,843.8,295.4,0.6,66,False,0.00909090909090909
266,331,1,17,A,43,7.925,0,0,Young,801,822,22,863.3,279.5,905.6,249.3,1.11,107,False,0.010373831775700936
267,332,1,17,A,44,1.069,1,0,Young,91,114,24,820.8,266.5,767.6,338.2,2.08,173,False,0.012023121387283238
268,333,1,17,A,45,3.467,0,0,Young,206,257,52,767.4,331.6,881.4,209.7,3.77,350,False,0.01077142857142857
269,334,1,17,A,46,0.696,0,0,Young,458,492,35,888.8,222.1,870.3,253.2,0.87,155,False,0.0056129032258064515
270,335,1,17,A,47,0.597,1,0,Young,910,930,21,853.1,239.9,848.7,188.4,1.33,134,False,0.009925373134328359
271,336,1,17,A,48,4.614,0,0,Young,76,212,137,838.3,145.2,790.3,324.0,4.68,566,False,0.008268551236749116
272,337,1,18,AdV,33,0.875,1,2,Young,653,658,6,787.3,287.1,777.2,279.1,0.28,58,False,0.004827586206896552
273,338,1,18,AdV,34,0.754,0,2,Young,837,842,6,779.3,280.0,781.2,294.0,0.36,58,False,0.006206896551724138
274,339,1,18,AdV,35,4.539,0,4,Young,941,981,41,780.8,293.8,796.3,263.7,0.82,118,False,0.006949152542372881
275,340,1,18,AdV,36,0.978,0,3,Young,213,253,41,791.7,266.9,875.5,231.1,1.81,210,False,0.00861904761904762
276,341,1,18,AdV,37,1.44,1,2,Young,700,722,23,903.3,230.7,952.3,227.2,0.92,114,False,0.008070175438596491
277,342,1,18,AdV,38,0.906,1,1,Young,229,302,74,424.6,-26.2,869.0,168.6,9.59,386,False,0.024844559585492226
278,343,1,18,AdV,39,0.81,1,1,Young,541,592,52,861.8,155.4,910.9,185.5,1.2,139,False,0.008633093525179856
279,344,1,18,AdV,40,2.884,1,2,Young,957,973,17,940.0,174.1,974.8,140.3,1.09,126,False,0.008650793650793652
280,345,1,18,AdV,41,1.994,1,2,Young,156,215,60,873.2,504.6,913.1,286.5,5.56,404,False,0.01376237623762376
281,346,1,18,AdV,42,0.837,1,2,Young,519,558,40,914.5,259.4,907.1,235.4,0.63,108,False,0.005833333333333334
282,347,1,18,AdV,43,0.887,1,1,Young,189,243,55,977.8,431.6,853.6,240.2,5.39,380,False,0.014184210526315789
283,348,1,18,AdV,44,3.751,0,4,Young,943,953,11,844.8,224.6,817.5,228.6,0.52,58,False,0.00896551724137931
284,349,1,18,AdV,45,4.457,1,4,Young,165,213,49,731.1,300.2,869.8,250.5,2.88,289,False,0.009965397923875432
285,350,1,18,AdV,46,0.854,1,3,Young,626,634,9,893.0,252.3,894.9,234.4,0.46,58,False,0.007931034482758621
286,351,1,18,AdV,47,1.039,1,4,Young,85,105,21,832.0,219.7,773.7,230.4,1.12,93,False,0.012043010752688174
287,352,1,18,AdV,48,0.789,0,3,Young,366,384,19,783.4,226.7,733.5,203.6,1.1,101,False,0.010891089108910892
288,353,1,19,V,33,6.242,1,0,Young,61,116,56,817.6,215.6,998.7,390.5,5.59,363,False,0.015399449035812671
289,354,1,19,V,34,0.648,1,0,Young,267,325,59,1017.8,403.0,787.0,252.0,5.76,422,False,0.013649289099526066
290,355,1,19,V,35,0.931,1,0,Young,374,384,11,836.7,217.4,825.2,239.7,0.61,73,False,0.008356164383561644
291,356,1,19,V,36,3.019,1,0,Young,11,54,44,275.0,1201.3,256.8,1292.2,1.82,178,False,0.010224719101123596
292,357,1,19,V,37,0.595,1,0,Young,212,301,90,266.4,1317.1,770.2,358.0,22.73,779,False,0.029178433889602055
293,358,1,19,V,38,0.632,1,0,Young,360,426,67,778.6,389.4,789.7,214.5,4.47,440,False,0.01015909090909091
294,359,1,19,V,39,0.829,1,0,Young,562,596,35,790.1,219.1,764.1,249.7,0.92,113,False,0.008141592920353982
295,360,1,19,V,40,1.564,1,0,Young,971,1003,33,750.1,257.4,697.2,260.0,0.98,120,False,0.008166666666666666
296,361,1,19,V,41,1.001,1,0,Young,153,203,51,760.5,266.6,937.7,277.1,3.31,214,False,0.015467289719626168
297,362,1,19,V,42,1.824,1,0,Young,398,428,31,961.4,268.3,992.4,257.3,0.64,131,False,0.004885496183206107
298,363,1,19,V,43,0.738,1,0,Young,228,250,23,810.4,262.9,722.2,210.0,2.13,200,False,0.01065
299,364,1,19,V,44,0.763,1,0,Young,253,286,34,840.6,223.2,829.8,249.1,0.7,147,False,0.0047619047619047615
300,365,1,19,V,45,3.592,1,0,Young,834,852,19,865.6,276.1,911.2,248.9,1.1,122,False,0.009016393442622951
301,366,1,19,V,46,0.63,1,0,Young,270,294,25,790.1,254.9,880.1,250.2,1.68,170,False,0.00988235294117647
302,367,1,19,V,47,1.372,0,0,Young,103,145,43,816.5,219.4,860.9,239.1,0.97,97,False,0.01
303,368,1,19,V,48,0.747,0,0,Young,253,267,15,871.8,251.0,870.8,249.1,0.05,59,False,0.0008474576271186442
304,369,1,20,dAV,33,1.81,1,0,Young,468,490,23,884.4,251.6,845.2,215.6,1.18,155,False,0.0076129032258064515
305,370,1,20,dAV,34,7.357,0,0,Young,137,184,48,782.5,223.8,917.1,267.5,2.75,260,False,0.010576923076923078
306,371,1,20,dAV,35,2.608,0,0,Young,479,502,24,944.8,263.4,968.5,216.1,1.29,154,False,0.008376623376623376
307,372,1,20,dAV,36,2.314,1,0,Young,169,206,38,774.5,272.3,856.2,218.3,2.06,199,False,0.010351758793969849
308,373,1,20,dAV,37,2.32,0,0,Young,692,704,13,876.4,208.0,906.4,236.9,0.93,89,False,0.010449438202247191
309,374,1,20,dAV,38,0.747,0,0,Young,-52,103,156,896.3,146.3,826.8,198.3,1.87,521,False,0.0035892514395393475
310,375,1,20,dAV,39,1.057,0,0,Young,264,298,35,832.9,205.8,847.2,245.5,1.06,202,False,0.005247524752475248
311,376,1,20,dAV,40,9.677,0,0,Young,681,708,28,854.2,240.1,854.1,310.7,1.81,121,False,0.014958677685950413
312,377,1,20,dAV,41,0.72,1,0,Young,228,251,24,837.7,246.7,915.3,260.5,1.49,121,False,0.01231404958677686
313,378,1,20,dAV,42,0.732,1,0,Young,2,171,170,832.6,237.2,804.5,270.1,0.99,513,False,0.0019298245614035087
314,379,1,20,dAV,43,0.785,1,0,Young,340,368,29,815.9,269.8,867.7,235.1,1.31,154,False,0.008506493506493507
315,380,1,20,dAV,44,0.55,1,0,Young,33,112,80,219.9,1454.6,792.1,444.0,23.44,790,False,0.02967088607594937
316,381,1,20,dAV,45,0.972,0,0,Young,232,279,48,810.8,417.4,877.7,304.2,3.13,306,False,0.01022875816993464
317,382,1,20,dAV,46,0.669,1,0,Young,186,220,35,821.7,245.3,883.0,234.3,1.18,172,False,0.006860465116279069
318,383,1,20,dAV,47,1.497,1,0,Young,810,825,16,878.0,237.5,917.1,222.9,0.82,74,False,0.01108108108108108
319,384,1,20,dAV,48,1.411,1,0,Young,157,205,49,792.9,288.5,952.3,303.3,2.99,235,False,0.01272340425531915
320,385,1,21,AV,33,0.676,1,0,Young,792,798,7,977.0,289.9,959.8,286.0,0.34,53,False,0.006415094339622642
321,386,1,21,AV,34,0.813,1,0,Young,352,374,23,871.3,285.4,924.2,272.1,1.04,98,False,0.010612244897959184
322,387,1,21,AV,35,0.772,1,0,Young,741,756,16,915.1,276.5,900.9,244.5,0.86,75,False,0.011466666666666667
323,388,1,21,AV,36,1.008,1,0,Young,944,962,19,905.5,257.4,924.4,246.5,0.45,76,False,0.0059210526315789476
324,389,1,21,AV,37,1.585,1,0,Young,88,121,34,859.2,319.9,941.9,356.8,1.8,112,False,0.016071428571428573
325,390,1,21,AV,38,2.966,1,0,Young,260,295,36,943.0,346.6,945.9,299.4,1.21,194,False,0.006237113402061856
326,391,1,21,AV,39,0.563,1,0,Young,590,602,13,950.6,281.2,914.9,271.5,0.71,68,False,0.010441176470588235
327,392,1,21,AV,40,0.669,1,0,Young,221,234,14,858.4,249.6,833.5,276.4,0.83,72,False,0.011527777777777777
328,393,1,21,AV,41,0.801,1,0,Young,846,861,16,886.7,268.3,925.1,262.8,0.73,71,False,0.01028169014084507
329,394,1,21,AV,42,0.884,1,0,Young,-83,19,103,1044.0,862.8,351.4,1457.5,16.62,376,False,0.04420212765957447
330,395,1,21,AV,43,1.371,1,0,Young,236,331,96,332.8,1479.0,900.4,424.8,24.21,864,False,0.028020833333333335
331,396,1,21,AV,44,1.145,1,0,Young,400,459,60,909.4,451.4,918.8,281.2,4.32,456,False,0.009473684210526316
332,397,1,21,AV,45,0.656,1,0,Young,218,242,25,842.2,268.3,883.5,307.4,1.26,146,False,0.00863013698630137
333,398,1,21,AV,46,8.493,0,0,Young,561,584,24,895.1,309.3,897.3,372.6,1.61,118,False,0.01364406779661017
334,399,1,21,AV,47,0.814,1,0,Young,843,865,23,904.5,360.2,902.8,293.7,1.7,168,False,0.01011904761904762
335,400,1,21,AV,48,0.909,1,0,Young,139,188,50,853.7,265.8,963.1,318.7,2.45,266,False,0.009210526315789475
336,401,1,22,dV,33,1.016,1,2,Young,276,311,36,982.6,334.3,968.2,298.8,0.95,186,False,0.0051075268817204296
337,402,1,22,dV,34,3.119,1,1,Young,564,592,29,972.5,280.2,1003.1,253.3,0.9,141,False,0.006382978723404256
338,403,1,22,dV,35,1.009,1,2,Young,832,862,31,1004.2,252.3,973.7,258.0,0.59,107,False,0.005514018691588784
339,404,1,22,dV,36,0.567,1,4,Young,151,195,45,786.5,292.5,933.8,258.5,2.88,283,False,0.010176678445229681
340,405,1,22,dV,37,4.275,0,4,Young,641,646,6,927.5,255.8,913.2,256.0,0.27,52,False,0.005192307692307692
341,406,1,22,dV,38,0.878,1,3,Young,6,189,184,853.4,237.8,819.1,239.6,0.64,710,False,0.0009014084507042254
342,407,1,22,dV,39,2.813,1,2,Young,334,370,37,830.4,256.0,854.9,270.5,0.59,190,False,0.003105263157894737
343,408,1,22,dV,40,1.999,1,4,Young,638,642,5,869.6,310.6,870.0,298.7,0.3,40,False,0.0075
344,409,1,22,dV,41,2.103,0,3,Young,456,486,31,851.6,291.6,854.7,244.5,1.21,192,False,0.006302083333333333
345,410,1,22,dV,42,1.161,1,1,Young,42,229,188,923.7,462.1,830.0,321.4,3.96,375,False,0.01056
346,411,1,22,dV,43,0.876,1,2,Young,345,388,44,844.4,334.1,833.4,279.4,1.41,230,False,0.0061304347826086954
347,412,1,22,dV,44,3.623,1,1,Young,926,941,16,832.3,268.7,787.3,269.1,0.84,70,False,0.012
348,413,1,22,dV,45,3.078,0,2,Young,284,309,26,830.5,280.8,896.4,214.1,2.11,180,False,0.01172222222222222
349,414,1,22,dV,46,0.861,1,1,Young,570,587,18,874.9,215.4,848.7,211.4,0.5,64,False,0.0078125
350,415,1,22,dV,47,3.521,1,2,Young,-20,218,239,798.1,198.8,876.5,287.3,2.7,689,False,0.003918722786647315
351,416,1,22,dV,48,0.936,1,2,Young,389,426,38,884.5,276.2,881.2,242.9,0.86,143,False,0.0060139860139860135
352,417,1,23,dAdV,33,2.152,0,4,Young,729,734,6,869.2,233.8,854.8,226.9,0.32,50,False,0.0064
353,418,1,23,dAdV,34,0.875,1,2,Young,0,177,178,832.8,286.5,867.4,294.4,0.68,663,False,0.0010256410256410256
354,419,1,23,dAdV,35,0.797,1,1,Young,293,339,47,878.4,287.4,894.0,362.7,1.94,232,False,0.008362068965517241
355,420,1,23,dAdV,36,0.85,0,1,Young,610,660,51,905.9,372.7,948.6,490.9,3.08,276,False,0.011159420289855072
356,421,1,23,dAdV,37,2.364,0,2,Young,682,739,58,960.2,518.3,957.7,667.3,3.64,356,False,0.010224719101123596
357,422,1,23,dAdV,38,0.687,1,4,Young,780,845,66,963.7,666.9,921.7,341.6,8.09,570,False,0.014192982456140351
358,423,1,23,dAdV,39,0.705,1,2,Young,377,530,154,825.2,300.8,824.9,332.8,0.82,696,False,0.00117816091954023
359,424,1,23,dAdV,40,2.667,1,3,Young,845,1036,192,827.7,330.4,853.6,733.9,9.93,344,False,0.02886627906976744
360,425,1,23,dAdV,41,0.829,1,2,Young,171,232,62,999.7,439.2,810.5,284.4,5.26,373,False,0.014101876675603217
361,426,1,23,dAdV,42,0.613,1,2,Young,567,668,102,818.6,268.6,861.3,629.4,9.03,190,False,0.04752631578947368
362,427,1,23,dAdV,43,2.979,0,2,Young,807,880,74,853.7,622.8,816.0,279.1,8.61,466,False,0.018476394849785405
363,428,1,23,dAdV,44,0.659,1,1,Young,191,247,57,832.2,288.3,973.3,434.7,4.55,375,False,0.012133333333333333
364,429,1,23,dAdV,45,2.865,0,4,Young,409,464,56,985.4,446.2,880.4,298.9,4.21,358,False,0.01175977653631285
365,430,1,23,dAdV,46,0.812,1,2,Young,681,822,142,879.1,302.1,972.7,935.1,15.2,321,False,0.04735202492211838
366,431,1,23,dAdV,47,0.709,1,4,Young,947,1027,81,964.4,884.0,881.4,256.9,15.2,724,False,0.020994475138121547
367,432,1,23,dAdV,48,1.463,0,3,Young,431,510,80,841.5,265.2,872.2,651.2,9.62,322,False,0.029875776397515527
368,433,1,24,dA,33,3.782,1,0,Young,628,705,78,872.2,667.0,822.2,247.5,10.48,589,False,0.017792869269949066
369,434,1,24,dA,34,0.954,1,0,Young,61,126,66,827.9,695.9,827.0,364.9,8.15,386,False,0.0211139896373057
370,435,1,24,dA,35,5.457,1,0,Young,287,347,61,836.5,361.1,881.7,229.8,3.46,330,False,0.010484848484848484
371,436,1,24,dA,36,5.564,0,0,Young,868,886,19,897.7,245.3,850.3,262.5,0.99,90,False,0.011
372,437,1,24,dA,37,7.455,0,0,Young,218,261,44,879.0,329.4,974.8,324.8,1.78,184,False,0.00967391304347826
373,438,1,24,dA,38,0.751,0,0,Young,708,727,20,998.7,292.6,957.4,292.0,0.77,80,False,0.009625
374,439,1,24,dA,39,3.947,1,0,Young,40,62,23,910.7,263.4,840.7,268.1,1.31,107,False,0.012242990654205609
375,440,1,24,dA,40,8.801,1,0,Young,416,484,69,844.0,301.0,961.3,554.4,6.72,316,False,0.021265822784810127
376,441,1,24,dA,41,10.907,0,0,Young,618,686,69,961.7,553.2,933.0,254.1,7.55,564,False,0.013386524822695036
377,442,1,24,dA,42,0.753,1,0,Young,99,148,50,896.6,507.6,1027.0,453.7,2.75,247,False,0.011133603238866396
378,443,1,24,dA,43,4.281,0,0,Young,239,293,55,1051.0,440.7,886.4,290.7,4.88,397,False,0.012292191435768261
379,444,1,24,dA,44,0.817,1,0,Young,590,631,42,881.0,289.3,908.3,516.1,5.74,210,False,0.027333333333333334
380,445,1,24,dA,45,0.683,0,0,Young,713,763,51,901.3,573.2,891.1,707.5,3.26,250,False,0.01304
381,446,1,24,dA,46,0.783,1,0,Young,864,940,77,890.4,733.6,891.6,263.4,11.58,593,False,0.019527824620573356
382,447,1,24,dA,47,0.695,1,0,Young,78,156,79,806.2,241.3,765.0,663.5,10.52,301,False,0.03495016611295681
383,448,1,24,dA,48,2.509,0,0,Young,292,363,72,773.2,652.9,911.9,226.7,10.9,574,False,0.018989547038327528
384,449,1,25,AdV,49,1.356,1,3,Young,656,706,51,909.3,235.0,883.7,358.3,3.19,236,False,0.013516949152542373
385,450,1,25,AdV,50,2.154,0,1,Young,889,944,56,883.9,385.0,880.2,233.7,3.86,410,False,0.009414634146341463
386,451,1,25,AdV,51,0.837,0,2,Young,46,104,59,818.1,246.9,907.8,407.4,4.42,226,False,0.019557522123893806
387,452,1,25,AdV,52,0.972,1,4,Young,270,314,45,907.2,421.8,906.7,334.1,2.22,294,False,0.007551020408163266
388,453,1,25,AdV,53,3.565,0,2,Young,55,111,57,818.8,218.2,879.1,349.3,3.54,205,False,0.01726829268292683
389,454,1,25,AdV,54,0.948,1,1,Young,272,306,35,886.8,376.0,860.1,317.0,1.58,226,False,0.006991150442477876
390,455,1,25,AdV,55,2.467,1,1,Young,990,1012,23,882.2,301.3,890.8,270.0,0.82,92,False,0.008913043478260869
391,456,1,25,AdV,56,7.134,0,1,Young,-88,3,92,871.1,384.2,360.9,1291.6,21.85,420,True,0.05202380952380953
392,457,1,25,AdV,57,1.107,1,2,Young,153,191,39,353.7,1331.5,324.2,1384.9,1.12,159,False,0.007044025157232705
393,458,1,25,AdV,58,0.774,1,3,Young,342,462,121,307.5,1405.7,940.4,227.3,27.7,800,False,0.034624999999999996
394,459,1,25,AdV,59,1.017,1,1,Young,913,966,54,918.0,235.6,879.6,349.6,3.0,134,False,0.022388059701492536
395,460,1,25,AdV,60,0.602,1,1,Young,194,251,58,807.9,225.6,927.0,337.6,3.62,293,False,0.012354948805460751
396,461,1,25,AdV,61,4.145,1,3,Young,361,503,143,930.7,339.0,900.6,257.3,2.17,344,False,0.006308139534883721
397,462,1,25,AdV,62,0.676,0,4,Young,726,952,227,917.4,253.6,990.1,273.4,1.45,395,False,0.003670886075949367
398,463,1,25,AdV,63,1.4,1,3,Young,978,982,5,994.7,278.2,998.4,271.7,0.18,58,False,0.003103448275862069
399,464,1,25,AdV,64,0.891,1,2,Young,181,214,34,820.0,460.7,927.8,292.9,4.69,308,False,0.015227272727272728
400,465,1,26,dAV,49,1.242,1,0,Young,815,890,76,931.0,267.8,945.9,464.3,4.99,271,False,0.01841328413284133
401,466,1,26,dAV,50,0.93,1,0,Young,320,381,62,830.2,223.1,885.9,426.5,5.28,235,False,0.02246808510638298
402,467,1,26,dAV,51,0.586,1,0,Young,559,624,66,895.2,429.7,817.8,195.7,6.13,398,False,0.015402010050251255
403,468,1,26,dAV,52,1.206,0,0,Young,120,169,50,829.6,181.9,873.8,319.3,3.62,236,False,0.015338983050847459
404,469,1,26,dAV,53,1.109,1,0,Young,345,389,45,893.3,336.9,863.8,248.2,2.34,286,False,0.00818181818181818
405,470,1,26,dAV,54,0.961,1,0,Young,636,865,230,883.2,241.6,937.1,283.4,1.47,318,False,0.004622641509433962
406,471,1,26,dAV,55,1.624,1,0,Young,38,58,21,1113.7,428.0,1178.7,479.5,1.76,143,False,0.012307692307692308
407,472,1,26,dAV,56,3.246,0,0,Young,219,286,68,1169.7,476.1,899.2,253.6,7.53,425,False,0.01771764705882353
408,473,1,26,dAV,57,0.849,1,0,Young,578,663,86,900.2,262.3,877.0,509.2,6.25,185,False,0.033783783783783786
409,474,1,26,dAV,58,0.936,0,0,Young,752,811,60,888.1,509.0,865.2,266.3,6.14,411,False,0.014939172749391726
410,475,1,26,dAV,59,0.748,1,0,Young,327,345,19,840.7,304.9,894.4,306.6,1.0,103,False,0.009708737864077669
411,476,1,26,dAV,60,0.684,1,0,Young,-32,19,52,708.3,499.3,632.8,643.8,3.79,241,False,0.015726141078838175
412,477,1,26,dAV,61,0.72,1,0,Young,260,333,74,640.1,683.5,800.0,292.7,10.08,480,False,0.021
413,478,1,26,dAV,62,0.976,1,0,Young,860,983,124,812.1,296.0,829.9,737.4,10.85,183,True,0.0592896174863388
414,479,1,26,dAV,63,0.719,1,0,Young,16,169,154,816.3,509.8,757.4,469.7,1.47,280,False,0.00525
415,480,1,26,dAV,64,0.605,1,0,Young,352,399,48,769.6,482.7,878.7,309.2,4.82,348,False,0.01385057471264368
416,481,1,27,A,49,2.087,0,0,Young,827,882,56,894.4,293.4,822.3,486.9,5.06,257,False,0.01968871595330739
417,482,1,27,A,50,1.322,0,0,Young,307,370,64,876.1,257.6,910.9,618.8,9.04,355,False,0.025464788732394363
418,483,1,27,A,51,1.978,1,0,Young,517,586,70,916.9,645.8,905.2,241.2,10.09,552,False,0.018278985507246378
419,484,1,27,A,52,0.894,1,0,Young,176,273,98,250.3,1436.2,912.0,413.0,24.47,762,False,0.03211286089238845
420,485,1,27,A,53,3.056,1,0,Young,378,432,55,920.5,414.0,882.0,326.8,2.33,234,False,0.009957264957264957
421,486,1,27,A,54,0.848,1,0,Young,10,62,53,869.6,532.9,859.6,409.4,3.09,238,False,0.012983193277310923
422,487,1,27,A,55,7.502,0,0,Young,305,328,24,864.1,375.6,864.0,256.2,3.05,289,False,0.010553633217993078
423,488,1,27,A,56,0.78,1,0,Young,919,981,63,875.6,289.3,871.4,500.1,5.32,248,False,0.02145161290322581
424,489,1,27,A,57,1.682,1,0,Young,81,105,25,905.5,233.0,795.2,202.4,2.2,159,False,0.013836477987421384
425,490,1,27,A,58,3.107,0,0,Young,339,363,25,807.7,222.9,922.3,228.9,2.15,189,False,0.011375661375661376
426,491,1,27,A,59,2.18,1,0,Young,604,637,34,925.9,235.3,885.1,335.9,2.69,221,False,0.012171945701357465
427,492,1,27,A,60,0.645,0,0,Young,974,1026,53,878.8,326.3,878.0,241.2,2.18,183,False,0.01191256830601093
428,493,1,27,A,61,2.179,0,0,Young,397,452,56,830.7,284.9,841.8,433.5,3.77,212,False,0.01778301886792453
429,494,1,27,A,62,0.592,1,0,Young,619,668,50,847.4,458.0,849.1,352.2,2.67,310,False,0.008612903225806452
430,495,1,27,A,63,2.143,0,0,Young,72,178,107,872.6,255.8,374.4,1388.7,26.07,479,True,0.0544258872651357
431,496,1,27,A,64,0.886,1,0,Young,389,481,93,386.0,1378.1,928.1,260.0,26.1,953,False,0.02738719832109129
432,497,1,28,dV,49,1.884,1,4,Young,194,241,48,1052.8,385.5,876.8,255.3,4.66,356,False,0.013089887640449438
433,498,1,28,dV,50,0.652,1,4,Young,191,244,54,1079.0,416.6,897.4,256.4,5.29,344,False,0.015377906976744186
434,499,1,28,dV,51,1.328,1,2,Young,608,624,17,836.0,326.8,789.5,338.0,0.91,84,False,0.010833333333333334
435,500,1,28,dV,52,0.86,1,3,Young,856,876,21,806.2,343.3,822.1,391.9,1.27,106,False,0.011981132075471699
436,501,1,28,dV,53,0.856,1,4,Young,76,154,79,266.9,1440.1,886.6,356.4,25.41,607,False,0.04186161449752883
437,502,1,28,dV,54,3.434,0,4,Young,385,428,44,904.8,342.4,895.7,288.4,1.39,182,False,0.007637362637362637
438,503,1,28,dV,55,0.903,1,1,Young,986,1007,22,901.4,264.3,951.3,317.9,1.66,118,False,0.01406779661016949
439,504,1,28,dV,56,0.778,1,3,Young,52,114,63,863.3,228.1,1159.4,326.7,6.05,267,False,0.022659176029962546
440,505,1,28,dV,57,0.683,1,4,Young,197,249,53,1181.1,336.7,922.4,276.4,5.04,304,False,0.016578947368421054
441,506,1,28,dV,58,1.429,1,2,Young,582,601,20,897.7,291.9,895.1,290.0,0.07,55,False,0.0012727272727272728
442,507,1,28,dV,59,0.736,1,1,Young,685,703,19,892.2,292.6,870.0,322.8,0.88,77,False,0.011428571428571429
443,508,1,28,dV,60,0.647,1,3,Young,210,247,38,854.1,278.0,887.6,231.8,1.34,256,False,0.005234375
444,509,1,28,dV,61,0.9,1,2,Young,35,57,23,830.6,250.6,921.0,244.9,1.69,144,False,0.01173611111111111
445,510,1,28,dV,62,4.145,0,4,Young,223,267,45,905.0,248.0,911.1,309.8,1.59,178,False,0.008932584269662923
446,511,1,28,dV,63,0.602,1,1,Young,649,666,18,919.5,337.6,931.3,373.9,0.95,88,False,0.010795454545454546
447,512,1,28,dV,64,0.893,1,1,Young,244,269,26,882.9,329.6,950.5,278.2,1.82,197,False,0.009238578680203046
448,513,1,29,V,49,1.148,1,0,Young,676,691,16,938.6,275.8,926.8,309.8,0.9,65,False,0.013846153846153847
449,514,1,29,V,50,1.415,1,0,Young,72,90,19,874.1,275.0,802.6,274.8,1.33,108,False,0.012314814814814815
450,515,1,29,V,51,0.722,1,0,Young,514,523,10,820.9,294.8,830.3,279.0,0.44,57,False,0.0077192982456140355
451,516,1,29,V,52,5.36,0,0,Young,26,47,22,406.1,1310.0,401.1,1389.9,1.53,147,False,0.010408163265306122
452,517,1,29,V,53,3.493,0,0,Young,301,405,105,397.8,1378.1,809.5,256.4,25.45,809,False,0.03145859085290482
453,518,1,29,V,54,0.749,1,0,Young,707,735,29,808.2,256.6,779.2,248.1,0.58,111,False,0.005225225225225225
454,519,1,29,V,55,1.568,1,0,Young,228,249,22,877.9,222.1,920.4,259.2,1.24,109,False,0.011376146788990826
455,520,1,29,V,56,0.749,1,0,Young,592,600,9,902.1,265.4,879.1,267.5,0.43,54,False,0.007962962962962963
456,521,1,29,V,57,1.172,1,0,Young,-34,25,60,850.0,74.0,880.2,249.4,4.56,198,False,0.02303030303030303
457,522,1,29,V,58,1.196,0,0,Young,169,217,49,876.9,290.7,982.3,348.9,2.46,245,False,0.010040816326530613
458,523,1,29,V,59,0.917,1,0,Young,476,512,37,964.9,366.0,939.6,367.6,0.47,78,False,0.006025641025641025
459,524,1,29,V,60,0.91,0,0,Young,949,967,19,928.2,364.1,958.4,352.2,0.64,77,False,0.008311688311688312
460,525,1,29,V,61,0.678,1,0,Young,77,94,18,893.3,231.7,832.7,251.8,1.24,95,False,0.013052631578947368
461,526,1,29,V,62,0.747,1,0,Young,381,404,24,847.0,250.2,912.2,261.1,1.25,125,False,0.01
462,527,1,29,V,63,0.747,1,0,Young,608,633,26,856.5,240.1,922.4,230.6,1.25,125,False,0.01
463,528,1,29,V,64,0.952,0,0,Young,61,102,42,833.8,163.5,826.4,86.1,2.0,118,False,0.01694915254237288
464,529,1,30,dA,49,0.78,1,0,Young,218,261,44,818.3,99.3,739.1,141.0,1.83,230,False,0.007956521739130435
465,530,1,30,dA,50,0.892,1,0,Young,-13,3,17,861.3,232.9,815.7,240.0,0.87,86,False,0.010116279069767442
466,531,1,30,dA,51,0.863,1,0,Young,201,237,37,827.8,230.5,869.6,242.2,0.84,168,False,0.005
467,532,1,30,dA,52,3.276,1,0,Young,935,953,19,894.4,255.9,926.9,275.2,0.78,88,False,0.008863636363636363
468,533,1,30,dA,53,0.927,0,0,Young,180,199,20,878.9,279.1,950.6,283.7,1.34,105,False,0.012761904761904763
469,534,1,30,dA,54,5.567,0,0,Young,667,679,13,923.3,289.7,960.0,284.3,0.7,72,False,0.009722222222222222
470,535,1,30,dA,55,0.625,1,0,Young,47,109,63,799.3,305.7,714.8,461.3,4.23,216,False,0.019583333333333335
471,536,1,30,dA,56,3.218,0,0,Young,270,339,70,702.6,475.8,894.3,241.8,6.9,409,False,0.01687041564792176
472,537,1,30,dA,57,1.074,1,0,Young,793,822,30,884.8,247.4,911.8,246.1,0.5,114,False,0.0043859649122807015
473,538,1,30,dA,58,2.168,1,0,Young,-87,151,239,814.5,230.1,810.5,227.4,0.1,388,False,0.0002577319587628866
474,539,1,30,dA,59,0.967,1,0,Young,253,280,28,818.5,241.8,884.8,303.8,2.01,202,False,0.009950495049504949
475,540,1,30,dA,60,3.057,1,0,Young,169,203,35,794.8,187.9,851.9,277.0,2.53,283,False,0.008939929328621907
476,541,1,30,dA,61,1.638,1,0,Young,541,555,15,866.2,277.2,845.3,247.8,0.85,90,False,0.009444444444444445
477,542,1,30,dA,62,0.72,1,0,Young,915,920,6,845.5,260.0,834.9,257.2,0.21,41,False,0.005121951219512195
478,543,1,30,dA,63,5.397,1,0,Young,229,335,107,341.5,1531.5,908.3,386.8,25.75,970,False,0.02654639175257732
479,544,1,30,dA,64,1.0,0,0,Young,527,558,32,918.5,383.1,901.7,323.5,1.55,230,False,0.006739130434782609
480,545,1,31,AV,49,0.819,1,0,Young,855,914,60,909.1,316.5,916.2,703.0,9.53,293,False,0.03252559726962457
481,546,1,31,AV,50,1.631,1,0,Young,57,127,71,893.9,338.6,944.4,653.4,7.87,262,False,0.0300381679389313
482,547,1,31,AV,51,0.905,1,0,Young,280,352,73,959.4,675.1,920.4,231.0,11.06,621,False,0.01780998389694042
483,548,1,31,AV,52,3.643,0,0,Young,623,723,101,925.3,254.5,937.0,542.1,7.25,271,False,0.026752767527675275
484,549,1,31,AV,53,0.796,1,0,Young,771,826,56,940.3,557.1,915.7,290.5,6.71,446,False,0.015044843049327353
485,550,1,31,AV,54,0.875,0,0,Young,383,441,59,851.2,293.9,885.2,479.9,4.74,292,False,0.01623287671232877
486,551,1,31,AV,55,0.604,0,0,Young,540,613,74,892.9,499.5,857.8,236.9,6.67,333,False,0.02003003003003003
487,552,1,31,AV,56,0.816,1,0,Young,95,130,36,826.0,306.3,936.8,324.6,2.11,144,False,0.014652777777777777
488,553,1,31,AV,57,0.697,1,0,Young,325,349,25,935.6,327.1,825.1,298.6,2.18,187,False,0.011657754010695189
489,554,1,31,AV,58,2.612,0,0,Young,785,850,66,847.9,310.9,909.8,425.6,3.13,120,False,0.026083333333333333
490,555,1,31,AV,59,0.555,1,0,Young,960,988,29,869.9,418.5,861.4,313.5,2.67,206,False,0.012961165048543688
491,556,1,31,AV,60,1.988,1,0,Young,-20,22,43,854.4,249.7,931.8,334.1,2.6,142,False,0.018309859154929577
492,557,1,31,AV,61,1.758,1,0,Young,223,272,50,942.0,332.5,887.6,238.1,2.62,262,False,0.01
493,558,1,31,AV,62,0.943,1,0,Young,578,606,29,885.5,248.5,871.7,392.2,3.67,219,False,0.016757990867579908
494,559,1,31,AV,63,0.639,1,0,Young,761,809,49,874.1,426.6,864.9,327.4,2.52,213,False,0.011830985915492958
495,560,1,31,AV,64,0.829,1,0,Young,-3,16,20,806.9,230.4,883.0,265.3,1.68,151,False,0.011125827814569536
496,561,1,32,dAdV,49,0.884,1,2,Young,353,433,81,884.8,262.8,904.6,736.1,11.66,410,False,0.028439024390243903
497,562,1,32,dAdV,50,0.559,1,2,Young,531,605,75,912.1,715.2,868.5,276.8,10.85,509,False,0.021316306483300587
498,563,1,32,dAdV,51,1.616,1,2,Young,823,864,42,885.5,288.7,903.7,232.3,1.49,267,False,0.005580524344569288
499,564,1,32,dAdV,52,0.78,1,3,Young,194,255,62,809.0,239.1,938.4,349.1,3.7,304,False,0.012171052631578949
500,565,1,32,dAdV,53,0.775,1,1,Young,463,518,56,945.4,336.7,903.0,248.6,2.39,220,False,0.010863636363636364
501,566,1,32,dAdV,54,0.731,0,2,Young,715,778,64,900.9,256.9,952.3,439.1,4.73,276,False,0.01713768115942029
502,567,1,32,dAdV,55,0.957,0,1,Young,929,977,49,955.6,431.2,935.7,280.7,3.84,355,False,0.010816901408450704
503,568,1,32,dAdV,56,0.954,1,1,Young,176,238,63,861.8,499.0,825.0,252.3,6.27,511,False,0.012270058708414872
504,569,1,32,dAdV,57,2.826,0,3,Young,788,806,19,871.7,285.5,938.0,275.9,1.26,108,False,0.011666666666666667
505,570,1,32,dAdV,58,2.214,0,2,Young,188,234,47,770.1,360.7,906.9,284.1,3.2,243,False,0.013168724279835392
506,571,1,32,dAdV,59,1.474,1,1,Young,567,645,79,929.9,275.3,959.6,814.4,13.14,300,False,0.0438
507,572,1,32,dAdV,60,0.94,1,3,Young,742,823,82,961.1,798.0,927.9,230.8,13.88,576,False,0.024097222222222225
508,573,1,32,dAdV,61,4.533,0,4,Young,544,611,68,852.3,284.1,916.8,572.4,7.33,214,False,0.03425233644859813
509,574,1,32,dAdV,62,2.118,1,4,Young,719,778,60,925.0,596.1,895.9,324.0,6.82,294,False,0.023197278911564628
510,575,1,32,dAdV,63,0.615,1,4,Young,239,281,43,965.4,273.2,884.0,246.9,1.66,164,False,0.010121951219512195
511,576,1,32,dAdV,64,0.638,1,3,Young,558,610,53,885.2,248.3,840.3,435.2,4.82,174,False,0.02770114942528736
512,577,1,33,dAV,65,0.872,1,0,Young,644,655,12,844.4,472.3,859.4,493.6,0.6,62,False,0.00967741935483871
513,578,1,33,dAV,66,0.553,0,0,Young,715,772,58,857.6,482.2,864.9,277.5,5.18,298,False,0.017382550335570467
514,579,1,33,dAV,67,0.635,1,0,Young,231,274,44,830.0,357.4,928.7,321.7,2.05,281,False,0.007295373665480427
515,580,1,33,dAV,68,2.436,0,0,Young,647,763,117,951.5,317.9,1009.2,800.7,11.81,304,False,0.03884868421052632
516,581,1,33,dAV,69,0.936,1,0,Young,830,907,78,970.1,782.1,936.1,348.5,10.59,534,False,0.0198314606741573
517,582,1,33,dAV,70,3.668,1,0,Young,230,277,48,828.6,254.1,851.5,324.4,1.85,212,False,0.008726415094339622
518,583,1,33,dAV,71,0.784,1,0,Young,441,466,26,861.9,338.5,777.5,232.1,3.14,250,False,0.01256
519,584,1,33,dAV,72,0.767,1,0,Young,634,702,69,789.3,250.4,889.0,567.7,8.17,278,False,0.029388489208633094
520,585,1,33,dAV,73,0.76,1,0,Young,794,832,39,877.1,619.4,844.9,301.9,7.94,384,False,0.020677083333333336
521,586,1,33,dAV,74,1.313,0,0,Young,219,271,53,830.6,258.3,934.7,347.3,2.99,279,False,0.010716845878136202
522,587,1,33,dAV,75,3.861,0,0,Young,462,503,42,941.3,370.9,904.7,269.6,2.67,302,False,0.008841059602649007
523,588,1,33,dAV,76,1.667,1,0,Young,611,699,89,906.3,285.3,958.1,454.1,4.39,161,False,0.027267080745341614
524,589,1,33,dAV,77,4.066,1,0,Young,885,944,60,916.6,490.9,896.0,294.7,4.97,311,False,0.01598070739549839
525,590,1,33,dAV,78,0.666,0,0,Young,325,593,269,840.1,266.5,823.8,300.7,0.93,531,False,0.0017514124293785311
526,591,1,33,dAV,79,1.809,1,0,Young,-17,153,171,842.6,295.6,809.1,268.2,0.94,264,False,0.0035606060606060605
527,592,1,33,dAV,80,6.59,0,0,Young,241,295,55,816.8,282.1,961.7,322.7,2.89,235,False,0.012297872340425533
528,593,1,34,dV,65,3.502,0,3,Young,533,592,60,969.8,337.3,1007.4,675.3,8.39,405,False,0.02071604938271605
529,594,1,34,dV,66,1.276,0,2,Young,680,756,77,1004.6,671.2,996.4,332.5,8.39,516,False,0.01625968992248062
530,595,1,34,dV,67,0.733,1,2,Young,967,1010,44,999.4,318.9,998.3,244.8,1.9,206,False,0.009223300970873786
531,596,1,34,dV,68,0.664,0,3,Young,71,106,36,773.4,238.7,764.6,164.4,1.92,114,False,0.016842105263157894
532,597,1,34,dV,69,0.866,1,4,Young,217,264,48,762.0,168.9,944.7,274.1,4.35,364,False,0.01195054945054945
533,598,1,34,dV,70,0.953,1,1,Young,659,705,47,997.4,261.8,968.8,426.1,4.21,186,False,0.022634408602150536
534,599,1,34,dV,71,0.981,1,1,Young,822,869,48,973.8,430.4,991.2,291.5,3.54,301,False,0.01176079734219269
535,600,1,34,dV,72,0.959,1,1,Young,120,232,113,796.5,232.6,972.2,359.7,4.61,498,False,0.0092570281124498
536,601,1,34,dV,73,0.792,0,3,Young,323,349,27,969.2,356.9,865.9,250.0,3.34,238,False,0.014033613445378151
537,602,1,34,dV,74,1.193,1,4,Young,598,638,41,865.7,239.1,840.6,350.6,2.89,196,False,0.014744897959183673
538,603,1,34,dV,75,0.945,1,3,Young,786,837,52,840.7,348.6,851.8,266.2,2.11,190,False,0.011105263157894736
539,604,1,34,dV,76,1.058,1,1,Young,903,1216,314,847.7,263.5,838.6,351.4,2.25,530,False,0.0042452830188679245
540,605,1,34,dV,77,0.596,1,3,Young,211,294,84,307.8,1398.2,872.7,369.7,24.16,803,False,0.030087173100871733
541,606,1,34,dV,78,0.74,1,4,Young,384,437,54,887.2,347.9,886.4,215.6,3.39,357,False,0.00949579831932773
542,607,1,34,dV,79,0.795,1,2,Young,742,788,47,891.0,229.0,884.2,317.2,2.26,188,False,0.01202127659574468
543,608,1,34,dV,80,1.088,1,3,Young,83,111,29,892.5,359.3,825.2,241.5,3.26,264,False,0.012348484848484848
544,609,1,35,AdV,65,0.714,0,3,Young,393,451,59,829.3,251.8,903.6,422.8,4.56,321,False,0.014205607476635513
545,610,1,35,AdV,66,1.452,1,2,Young,618,670,53,902.6,426.5,856.8,271.0,4.04,394,False,0.010253807106598985
546,611,1,35,AdV,67,0.781,1,2,Young,877,922,46,863.6,268.2,880.0,431.4,4.16,247,False,0.016842105263157894
547,612,1,35,AdV,68,0.827,1,1,Young,974,1190,217,883.7,413.0,874.8,324.7,2.25,381,False,0.005905511811023622
548,613,1,35,AdV,69,0.61,1,3,Young,433,456,24,817.6,271.1,902.1,333.7,2.24,169,False,0.013254437869822486
549,614,1,35,AdV,70,3.774,0,1,Young,575,617,43,908.1,353.3,923.7,508.1,3.9,159,False,0.02452830188679245
550,615,1,35,AdV,71,0.585,1,1,Young,644,690,47,888.2,545.2,884.0,417.9,3.18,160,False,0.019875
551,616,1,35,AdV,72,1.826,1,1,Young,771,1033,263,880.0,425.9,877.4,300.7,3.18,324,False,0.009814814814814816
552,617,1,35,AdV,73,1.263,0,4,Young,61,248,188,781.9,274.2,859.9,366.4,2.76,532,False,0.00518796992481203
553,618,1,35,AdV,74,1.258,1,4,Young,825,846,22,853.2,345.5,800.7,293.4,1.65,130,False,0.012692307692307692
554,619,1,35,AdV,75,0.495,1,1,Young,211,259,49,887.5,247.8,973.9,292.6,1.98,251,False,0.007888446215139441
555,620,1,35,AdV,76,0.671,1,4,Young,479,544,66,985.6,312.1,890.4,701.1,9.76,365,False,0.02673972602739726
556,621,1,35,AdV,77,0.534,1,4,Young,705,780,76,891.4,728.2,1037.5,275.3,11.47,485,False,0.023649484536082475
557,622,1,35,AdV,78,0.871,1,3,Young,182,236,55,816.8,241.9,966.1,279.0,2.94,213,False,0.01380281690140845
558,623,1,35,AdV,79,0.634,1,3,Young,720,986,267,985.4,283.4,995.5,296.4,0.38,682,False,0.0005571847507331378
559,624,1,35,AdV,80,0.739,1,3,Young,-28,42,71,837.2,340.3,1090.9,626.7,8.5,199,False,0.04271356783919598
560,625,1,36,dA,65,1.182,0,0,Young,206,284,79,1101.4,638.0,911.9,215.5,11.11,452,False,0.024579646017699113
561,626,1,36,dA,66,0.857,1,0,Young,456,480,25,927.1,229.1,825.4,187.4,2.18,178,False,0.012247191011235956
562,627,1,36,dA,67,1.813,0,0,Young,628,902,275,847.1,211.4,907.4,236.4,1.3,266,False,0.004887218045112782
563,628,1,36,dA,68,0.831,1,0,Young,240,264,25,780.9,200.0,888.1,199.3,2.0,179,False,0.0111731843575419
564,629,1,36,dA,69,0.943,0,0,Young,485,829,345,871.8,221.2,890.7,352.5,3.38,430,False,0.00786046511627907
565,630,1,36,dA,70,4.913,1,0,Young,874,933,60,887.0,349.8,860.6,218.5,3.4,408,False,0.008333333333333333
566,631,1,36,dA,71,1.104,0,0,Young,-11,54,66,783.6,397.7,760.9,163.0,6.0,316,False,0.0189873417721519
567,632,1,36,dA,72,1.818,0,0,Young,247,294,48,770.6,180.5,853.6,281.8,3.03,333,False,0.009099099099099098
568,633,1,36,dA,73,0.745,1,0,Young,555,663,109,870.8,323.7,889.3,745.3,10.35,289,False,0.035813148788927336
569,634,1,36,dA,74,1.432,1,0,Young,723,783,61,872.9,722.8,893.4,358.7,8.95,399,False,0.022431077694235586
570,635,1,36,dA,75,0.694,1,0,Young,993,1029,37,893.2,333.4,891.2,231.8,2.6,261,False,0.00996168582375479
571,636,1,36,dA,76,1.229,0,0,Young,64,104,41,681.6,1239.4,338.4,1368.0,6.05,358,False,0.016899441340782122
572,637,1,36,dA,77,0.899,1,0,Young,195,279,85,319.0,1389.5,935.3,416.2,23.44,843,False,0.02780545670225386
573,638,1,36,dA,78,1.7,1,0,Young,348,408,61,934.4,428.2,943.2,250.1,4.53,396,False,0.01143939393939394
574,639,1,36,dA,79,5.693,0,0,Young,718,746,29,943.8,277.3,923.7,402.8,3.22,182,False,0.017692307692307695
575,640,1,36,dA,80,1.331,0,0,Young,848,858,11,924.3,488.0,925.2,470.9,0.43,53,False,0.008113207547169812
576,641,1,37,A,65,0.666,1,0,Young,911,970,60,928.6,457.7,912.0,267.5,4.83,243,False,0.019876543209876543
577,642,1,37,A,66,0.65,1,0,Young,135,335,201,839.0,268.0,905.8,451.4,4.82,553,False,0.00871609403254973
578,643,1,37,A,67,0.711,1,0,Young,481,544,64,906.4,444.4,864.0,264.5,4.63,366,False,0.012650273224043716
579,644,1,37,A,68,1.791,0,0,Young,163,227,65,1667.7,443.8,922.8,322.9,13.78,494,False,0.02789473684210526
580,645,1,37,A,69,1.071,1,0,Young,332,375,44,916.7,323.8,885.7,240.8,2.2,277,False,0.007942238267148015
581,646,1,37,A,70,0.882,0,0,Young,940,1012,73,875.4,215.3,898.3,412.0,5.04,245,False,0.02057142857142857
582,647,1,37,A,71,0.695,1,0,Young,237,290,54,947.7,376.0,897.3,251.6,3.31,297,False,0.011144781144781145
583,648,1,37,A,72,0.757,1,0,Young,582,774,193,902.4,260.9,914.5,325.3,1.66,380,False,0.004368421052631579
584,649,1,37,A,73,0.658,1,0,Young,869,904,36,924.8,337.1,918.3,295.7,1.06,164,False,0.006463414634146342
585,650,1,37,A,74,0.709,1,0,Young,81,157,77,840.6,287.7,754.2,658.9,9.35,345,False,0.02710144927536232
586,651,1,37,A,75,0.831,1,0,Young,202,268,67,760.5,643.6,906.2,257.7,9.98,561,False,0.017789661319073086
587,652,1,37,A,76,0.571,1,0,Young,959,971,13,907.1,247.0,894.2,223.1,0.66,79,False,0.008354430379746836
588,653,1,37,A,77,0.61,1,0,Young,181,221,41,725.1,233.8,838.6,273.4,2.34,240,False,0.00975
589,654,1,37,A,78,0.679,1,0,Young,577,590,14,862.4,267.6,877.2,293.2,0.71,70,False,0.010142857142857143
590,655,1,37,A,79,0.921,0,0,Young,-9,53,63,849.1,236.0,1098.9,181.5,4.87,240,False,0.020291666666666666
591,656,1,37,A,80,3.629,0,0,Young,190,224,35,1117.2,182.7,940.2,213.4,3.4,255,False,0.013333333333333332
592,657,1,38,dAdV,65,1.931,0,3,Young,529,546,18,926.6,206.1,884.2,195.1,0.84,98,False,0.008571428571428572
593,658,1,38,dAdV,66,0.696,1,2,Young,-63,128,192,823.2,275.6,789.9,249.4,0.91,432,False,0.0021064814814814817
594,659,1,38,dAdV,67,2.869,0,2,Young,223,267,45,804.5,272.6,932.2,317.3,2.64,281,False,0.009395017793594307
595,660,1,38,dAdV,68,0.559,1,3,Young,512,548,37,978.2,322.9,972.3,293.1,0.77,158,False,0.0048734177215189875
596,661,1,38,dAdV,69,0.816,1,4,Young,194,249,56,1074.2,429.8,919.9,261.7,5.14,376,False,0.013670212765957446
597,662,1,38,dAdV,70,1.589,0,2,Young,529,564,36,926.2,286.0,919.1,334.4,1.24,153,False,0.008104575163398693
598,663,1,38,dAdV,71,1.082,1,4,Young,199,256,58,1012.1,355.5,869.5,237.7,4.01,268,False,0.014962686567164178
599,664,1,38,dAdV,72,1.434,1,1,Young,700,720,21,874.0,245.8,836.9,253.9,0.72,82,False,0.008780487804878048
600,665,1,38,dAdV,73,0.677,1,1,Young,152,178,27,849.0,216.2,965.3,280.3,2.72,220,False,0.012363636363636365
601,666,1,38,dAdV,74,2.741,1,1,Young,711,728,18,943.7,267.1,977.2,243.1,0.88,84,False,0.010476190476190476
602,667,1,38,dAdV,75,0.6,1,1,Young,185,246,62,1017.4,356.5,899.0,215.9,4.22,342,False,0.012339181286549707
603,668,1,38,dAdV,76,2.974,0,4,Young,504,519,16,899.7,202.8,861.6,212.8,0.76,66,False,0.011515151515151515
604,669,1,38,dAdV,77,0.576,1,2,Young,96,355,260,800.0,267.0,833.0,261.9,0.63,380,False,0.0016578947368421054
605,670,1,38,dAdV,78,0.556,1,2,Young,453,493,41,831.8,265.0,861.0,243.8,0.77,168,False,0.004583333333333333
606,671,1,38,dAdV,79,0.941,1,4,Young,765,775,11,867.0,220.2,837.9,216.1,0.55,58,False,0.009482758620689657
607,672,1,38,dAdV,80,0.539,1,2,Young,231,252,22,845.2,238.1,909.2,261.7,1.34,105,False,0.012761904761904763
608,673,1,39,V,65,0.624,1,0,Young,585,605,21,892.5,270.2,888.7,337.1,1.71,151,False,0.011324503311258277
609,674,1,39,V,66,4.412,1,0,Young,970,994,25,892.2,320.9,871.7,259.1,1.63,173,False,0.009421965317919074
610,675,1,39,V,67,0.682,1,0,Young,98,166,69,832.9,184.4,822.4,218.2,0.89,78,False,0.011410256410256411
611,676,1,39,V,68,1.406,0,0,Young,216,240,25,818.4,209.3,930.0,243.0,2.26,181,False,0.012486187845303866
612,677,1,39,V,69,0.77,1,0,Young,656,674,19,916.2,237.6,972.5,215.7,1.19,99,False,0.01202020202020202
613,678,1,39,V,70,0.894,1,0,Young,27,47,21,789.1,217.9,832.3,210.9,0.83,87,False,0.00954022988505747
614,679,1,39,V,71,0.75,0,0,Young,310,329,20,831.0,214.4,867.4,253.6,1.22,117,False,0.010427350427350428
615,680,1,39,V,72,1.033,0,0,Young,682,700,19,882.1,256.8,942.4,249.7,1.14,105,False,0.010857142857142857
616,681,1,39,V,73,0.896,1,0,Young,356,370,15,888.0,273.6,909.1,304.3,0.88,92,False,0.009565217391304347
617,682,1,39,V,74,2.075,1,0,Young,973,991,19,887.7,280.9,921.4,245.5,1.1,100,False,0.011000000000000001
618,683,1,39,V,75,0.851,1,0,Young,187,212,26,826.0,306.2,944.6,250.0,2.64,234,False,0.011282051282051283
619,684,1,39,V,76,2.276,1,0,Young,604,618,15,937.9,271.9,957.5,292.8,0.65,64,False,0.01015625
620,685,1,39,V,77,0.617,1,0,Young,319,349,31,822.5,285.9,842.7,222.4,1.67,223,False,0.007488789237668161
621,686,1,39,V,78,0.741,1,0,Young,-36,13,50,658.3,172.6,797.7,231.9,3.0,179,False,0.01675977653631285
622,687,1,39,V,79,1.032,1,0,Young,212,236,25,812.5,236.2,870.9,272.9,1.44,142,False,0.010140845070422535
623,688,1,39,V,80,0.846,1,0,Young,908,919,12,918.1,264.8,942.6,244.6,0.69,72,False,0.009583333333333333
624,689,1,40,AV,65,1.847,1,0,Young,182,252,71,786.8,552.1,916.8,296.4,6.85,430,False,0.015930232558139534
625,690,1,40,AV,66,0.711,1,0,Young,702,720,19,898.3,288.9,886.1,259.8,0.78,99,False,0.00787878787878788
626,691,1,40,AV,67,1.008,0,0,Young,-41,29,71,268.4,1006.8,371.6,1379.0,7.68,385,False,0.019948051948051947
627,692,1,40,AV,68,0.761,1,0,Young,304,401,98,360.6,1341.5,900.3,279.4,25.1,819,False,0.03064713064713065
628,693,1,40,AV,69,1.22,1,0,Young,501,553,53,903.8,285.2,940.4,205.3,2.16,258,False,0.008372093023255815
629,694,1,40,AV,70,0.824,1,0,Young,795,817,23,931.2,196.3,893.6,186.7,0.75,88,False,0.008522727272727272
630,695,1,40,AV,71,0.792,1,0,Young,3,23,21,257.2,1404.5,295.6,1420.1,0.66,85,False,0.007764705882352942
631,696,1,40,AV,72,0.896,1,0,Young,194,293,100,287.3,1417.7,1040.7,345.4,26.32,866,False,0.030392609699769053
632,697,1,40,AV,73,0.633,1,0,Young,446,484,39,1022.1,359.1,977.7,331.9,1.08,187,False,0.005775401069518717
633,698,1,40,AV,74,1.146,1,0,Young,70,221,152,251.5,1404.4,879.1,378.9,24.47,689,False,0.035515239477503624
634,699,1,40,AV,75,0.735,1,0,Young,333,371,39,863.5,374.7,858.4,291.1,2.13,302,False,0.007052980132450331
635,700,1,40,AV,76,1.655,1,0,Young,696,702,7,853.9,280.8,840.1,273.0,0.33,50,False,0.0066
636,701,1,40,AV,77,0.979,1,0,Young,173,201,29,797.2,361.5,853.5,251.7,2.99,226,False,0.013230088495575222
637,702,1,40,AV,78,3.146,0,0,Young,899,916,18,864.2,236.0,909.4,223.8,0.9,76,False,0.011842105263157895
638,703,1,40,AV,79,0.74,1,0,Young,174,245,72,892.5,511.6,863.9,213.3,7.57,447,False,0.016935123042505593
639,704,1,40,AV,80,0.683,1,0,Young,513,532,20,872.2,209.2,816.7,163.5,1.57,141,False,0.011134751773049645
640,705,1,41,dV,81,0.967,0,4,Young,954,962,9,840.1,195.8,829.7,213.3,0.49,60,False,0.008166666666666666
641,706,1,41,dV,82,0.637,1,1,Young,95,146,52,370.3,47.5,80.2,60.1,5.14,267,False,0.019250936329588013
642,707,1,41,dV,83,0.981,0,4,Young,321,403,83,72.2,57.0,856.6,223.3,14.68,483,False,0.030393374741200827
643,708,1,41,dV,84,1.053,1,2,Young,664,686,23,851.0,217.7,799.3,222.0,0.97,103,False,0.00941747572815534
644,709,1,41,dV,85,0.974,1,3,Young,936,942,7,803.1,216.2,786.0,226.9,0.42,56,False,0.0075
645,710,1,41,dV,86,0.847,1,2,Young,116,239,124,253.8,1404.0,1006.9,304.3,26.94,1001,False,0.026913086913086914
646,711,1,41,dV,87,0.809,0,3,Young,531,561,31,1009.5,278.2,1036.8,245.8,0.98,186,False,0.0052688172043010755
647,712,1,41,dV,88,1.018,0,4,Young,50,112,63,835.5,404.9,817.7,249.3,3.97,304,False,0.01305921052631579
648,713,1,41,dV,89,1.291,0,1,Young,373,395,23,810.7,234.5,870.8,223.0,1.16,114,False,0.010175438596491228
649,714,1,41,dV,90,0.852,1,2,Young,172,251,80,867.6,377.7,853.1,212.5,4.23,435,False,0.009724137931034483
650,715,1,41,dV,91,1.341,1,1,Young,368,386,19,848.8,206.5,810.2,221.1,0.81,63,False,0.012857142857142859
651,716,1,41,dV,92,0.9,0,4,Young,174,236,63,1125.2,431.1,873.5,245.1,6.64,385,False,0.017246753246753246
652,717,1,41,dV,93,0.79,0,2,Young,443,459,17,872.3,257.3,814.5,232.4,1.25,105,False,0.011904761904761904
653,718,1,41,dV,94,1.113,0,4,Young,878,901,24,829.7,252.9,853.1,340.7,2.28,189,False,0.012063492063492063
654,719,1,41,dV,95,1.629,1,1,Young,224,279,56,875.3,265.1,930.3,209.8,1.75,193,False,0.009067357512953367
655,720,1,41,dV,96,1.163,1,3,Young,503,533,31,865.7,353.4,855.9,336.7,0.46,117,False,0.003931623931623932
656,721,1,42,dA,81,2.941,0,0,Young,27,100,74,869.0,317.0,977.2,446.4,3.84,148,False,0.025945945945945945
657,722,1,42,dA,82,1.299,1,0,Young,233,281,49,969.9,449.1,927.0,294.5,4.0,388,False,0.010309278350515464
658,723,1,42,dA,83,2.646,0,0,Young,558,564,7,920.2,274.1,904.8,282.1,0.35,51,False,0.006862745098039216
659,724,1,42,dA,84,0.717,1,0,Young,192,237,46,825.8,287.7,932.1,282.0,1.98,249,False,0.007951807228915662
660,725,1,42,dA,85,1.041,0,0,Young,502,543,42,947.9,266.5,897.7,265.1,0.94,150,False,0.006266666666666666
661,726,1,42,dA,86,5.0,1,0,Young,955,975,21,859.6,278.5,895.0,245.0,1.08,115,False,0.009391304347826087
662,727,1,42,dA,87,4.468,1,0,Young,13,157,145,267.6,1374.1,861.6,346.4,24.45,551,False,0.04437386569872958
663,728,1,42,dA,88,0.606,0,0,Young,322,376,55,876.2,345.7,893.0,254.4,2.36,287,False,0.008222996515679442
664,729,1,42,dA,89,4.075,1,0,Young,703,727,25,858.6,259.3,832.8,237.7,0.73,99,False,0.0073737373737373735
665,730,1,42,dA,90,0.861,0,0,Young,33,48,16,837.2,246.3,793.0,236.6,0.86,75,False,0.011466666666666667
666,731,1,42,dA,91,0.822,1,0,Young,217,249,33,806.1,237.9,856.3,267.1,1.2,177,False,0.006779661016949152
667,732,1,42,dA,92,4.841,0,0,Young,604,620,17,865.9,265.1,910.9,262.8,0.84,77,False,0.010909090909090908
668,733,1,42,dA,93,3.769,0,0,Young,-68,99,168,841.6,269.2,847.2,277.1,0.23,370,False,0.0006216216216216216
669,734,1,42,dA,94,6.072,0,0,Young,359,393,35,836.5,264.8,844.1,297.7,0.85,125,False,0.0068
670,735,1,42,dA,95,0.759,0,0,Young,818,842,25,862.9,298.5,896.5,261.3,1.14,126,False,0.009047619047619047
671,736,1,42,dA,96,0.706,1,0,Young,-16,16,33,326.2,1360.0,297.9,1382.9,0.62,85,False,0.007294117647058823
672,737,1,43,dAV,81,3.052,0,0,Young,138,225,88,283.5,1393.1,860.3,301.3,25.59,943,False,0.02713679745493107
673,738,1,43,dAV,82,0.791,1,0,Young,340,380,41,866.1,325.7,901.2,254.6,1.93,352,False,0.005482954545454545
674,739,1,43,dAV,83,1.296,1,0,Young,985,993,9,889.9,213.0,867.7,196.4,0.6,72,False,0.008333333333333333
675,740,1,43,dAV,84,0.909,1,0,Young,268,337,70,1469.7,564.9,967.7,263.8,11.84,467,False,0.025353319057815845
676,741,1,43,dAV,85,0.963,1,0,Young,721,874,154,922.6,247.7,2781.4,1313.5,36.18,451,True,0.08022172949002217
677,742,1,43,dAV,86,1.221,1,0,Young,542,562,21,866.7,263.4,893.4,290.3,0.85,94,False,0.009042553191489361
678,743,1,43,dAV,87,0.706,1,0,Young,852,873,22,881.4,290.3,831.0,292.9,0.94,102,False,0.009215686274509803
679,744,1,43,dAV,88,0.607,1,0,Young,88,119,32,249.1,186.9,101.5,226.6,2.77,207,False,0.013381642512077295
680,745,1,43,dAV,89,0.982,1,0,Young,251,329,79,103.4,219.4,821.6,270.4,12.96,502,False,0.025816733067729084
681,746,1,43,dAV,90,1.086,0,0,Young,891,914,24,821.4,259.4,853.0,212.6,1.34,141,False,0.00950354609929078
682,747,1,43,dAV,91,1.299,1,0,Young,22,57,36,737.3,384.8,841.4,254.0,3.85,190,False,0.020263157894736844
683,748,1,43,dAV,92,0.577,1,0,Young,391,411,21,846.0,242.0,895.5,266.3,1.11,100,False,0.0111
684,749,1,43,dAV,93,1.511,1,0,Young,864,877,14,888.9,274.6,849.2,270.2,0.75,75,False,0.01
685,750,1,43,dAV,94,0.621,1,0,Young,168,200,33,801.5,234.1,880.8,208.6,1.62,178,False,0.009101123595505618
686,751,1,43,dAV,95,2.453,0,0,Young,535,555,21,890.9,202.0,935.8,202.2,0.84,90,False,0.009333333333333332
687,752,1,43,dAV,96,0.884,1,0,Young,858,878,21,933.4,202.2,919.8,271.8,1.81,117,False,0.01547008547008547
688,753,1,44,dAdV,81,0.616,1,3,Young,267,288,22,820.5,252.0,895.3,226.8,1.54,143,False,0.010769230769230769
689,754,1,44,dAdV,82,0.883,1,3,Young,747,763,17,865.7,208.4,848.2,211.5,0.34,55,False,0.006181818181818182
690,755,1,44,dAdV,83,1.42,0,2,Young,203,335,133,258.6,1401.2,968.6,326.0,26.13,737,False,0.035454545454545454
691,756,1,44,dAdV,84,0.684,1,2,Young,635,652,18,962.4,313.4,916.8,271.1,1.38,106,False,0.013018867924528301
692,757,1,44,dAdV,85,0.783,1,2,Young,-81,145,227,860.8,269.5,840.0,288.2,0.62,358,False,0.0017318435754189944
693,758,1,44,dAdV,86,2.025,0,3,Young,240,281,42,833.3,272.0,891.7,278.5,1.1,204,False,0.005392156862745099
694,759,1,44,dAdV,87,0.652,1,1,Young,174,238,65,797.0,518.9,840.2,274.5,6.22,446,False,0.013946188340807174
695,760,1,44,dAdV,88,0.492,1,3,Young,546,578,33,862.0,283.7,855.0,260.2,0.62,132,False,0.004696969696969697
696,761,1,44,dAdV,89,1.355,1,3,Young,956,975,20,868.7,245.5,917.2,248.4,0.91,88,False,0.010340909090909092
697,762,1,44,dAdV,90,1.684,0,4,Young,562,580,19,896.6,267.9,949.8,241.4,1.2,119,False,0.010084033613445377
698,763,1,44,dAdV,91,1.325,1,1,Young,857,888,32,937.6,245.0,912.8,238.0,0.5,76,False,0.006578947368421052
699,764,1,44,dAdV,92,0.454,1,1,Young,92,247,156,874.5,330.4,899.4,387.6,1.53,463,False,0.003304535637149028
700,765,1,44,dAdV,93,0.741,1,1,Young,318,359,42,902.7,393.7,895.6,314.2,2.03,345,False,0.005884057971014493
701,766,1,44,dAdV,94,0.537,1,3,Young,176,263,88,230.2,1452.3,852.9,363.6,25.4,941,False,0.026992561105207223
702,767,1,44,dAdV,95,1.437,1,1,Young,348,391,44,854.4,394.6,876.9,299.6,2.45,363,False,0.006749311294765841
703,768,1,44,dAdV,96,0.968,1,1,Young,710,735,26,870.1,265.5,879.4,237.9,0.73,139,False,0.005251798561151079
704,769,1,45,AdV,81,0.6,1,2,Young,-65,79,145,825.9,225.5,839.6,280.4,1.43,365,False,0.003917808219178082
705,770,1,45,AdV,82,0.505,1,4,Young,477,531,55,830.4,273.4,852.6,454.1,4.6,289,False,0.015916955017301036
706,771,1,45,AdV,83,0.667,0,2,Young,656,717,62,861.1,473.6,872.9,315.2,4.01,289,False,0.013875432525951557
707,772,1,45,AdV,84,2.582,0,4,Young,175,202,28,797.8,264.5,954.7,282.9,2.96,200,False,0.0148
708,773,1,45,AdV,85,0.867,1,1,Young,176,258,83,440.7,1190.2,848.8,352.2,20.24,901,False,0.02246392896781354
709,774,1,45,AdV,86,1.678,1,2,Young,358,409,52,850.4,373.6,845.9,279.0,2.41,315,False,0.007650793650793651
710,775,1,45,AdV,87,0.94,1,2,Young,61,145,85,285.3,1434.0,839.5,419.7,23.54,747,False,0.03151271753681392
711,776,1,45,AdV,88,0.833,1,4,Young,272,312,41,860.7,399.6,884.8,349.1,1.36,209,False,0.006507177033492823
712,777,1,45,AdV,89,0.767,1,3,Young,166,196,31,883.4,309.0,999.9,394.7,3.07,212,False,0.014481132075471697
713,778,1,45,AdV,90,1.397,1,1,Young,372,417,46,989.4,390.7,963.8,305.3,2.22,245,False,0.009061224489795919
714,779,1,45,AdV,91,0.689,0,3,Young,83,127,45,815.8,260.0,884.6,261.0,1.28,116,False,0.01103448275862069
715,780,1,45,AdV,92,1.283,0,4,Young,424,496,73,899.7,247.9,862.8,574.2,8.23,328,False,0.025091463414634148
716,781,1,45,AdV,93,1.955,1,3,Young,584,660,77,875.0,572.1,891.3,230.2,8.6,471,False,0.018259023354564755
717,782,1,45,AdV,94,0.736,1,2,Young,972,1126,155,888.8,277.6,923.1,778.4,12.28,220,True,0.055818181818181815
718,783,1,45,AdV,95,1.175,0,1,Young,60,136,77,573.1,911.5,307.1,1407.0,11.0,562,False,0.019572953736654804
719,784,1,45,AdV,96,1.077,1,3,Young,262,377,116,312.1,1389.1,886.1,293.9,25.67,878,False,0.029236902050113898
720,785,1,46,AV,81,0.832,1,0,Young,599,639,41,917.2,290.9,894.0,257.6,0.96,198,False,0.0048484848484848485
721,786,1,46,AV,82,0.659,1,0,Young,182,229,48,847.5,247.0,976.5,274.4,2.51,242,False,0.01037190082644628
722,787,1,46,AV,83,2.443,0,0,Young,444,466,23,1005.7,281.8,919.8,259.8,1.7,128,False,0.01328125
723,788,1,46,AV,84,0.678,1,0,Young,668,712,45,934.5,270.0,962.0,504.9,5.95,236,False,0.025211864406779663
724,789,1,46,AV,85,0.807,1,0,Young,820,872,53,972.4,509.4,945.3,301.9,5.26,368,False,0.014293478260869564
725,790,1,46,AV,86,0.609,1,0,Young,388,436,49,857.2,268.8,876.1,349.9,2.1,207,False,0.010144927536231885
726,791,1,46,AV,87,0.717,1,0,Young,741,763,23,882.5,351.7,898.7,279.3,1.87,171,False,0.010935672514619884
727,792,1,46,AV,88,0.943,1,0,Young,804,822,19,904.1,298.4,909.6,332.8,0.88,76,False,0.011578947368421053
728,793,1,46,AV,89,0.696,1,0,Young,883,1005,123,905.5,375.5,925.2,537.8,4.08,265,False,0.01539622641509434
729,794,1,46,AV,90,1.734,0,0,Young,428,453,26,829.8,255.8,787.9,334.0,2.14,169,False,0.012662721893491125
730,795,1,46,AV,91,2.142,1,0,Young,562,751,190,807.2,329.5,839.3,328.1,0.6,569,False,0.001054481546572935
731,796,1,46,AV,92,0.663,1,0,Young,950,992,43,852.0,340.9,845.6,279.6,1.57,221,False,0.0071040723981900455
732,797,1,46,AV,93,1.696,0,0,Young,9,59,51,890.6,298.2,824.3,312.4,1.29,110,False,0.011727272727272727
733,798,1,46,AV,94,1.057,1,0,Young,261,283,23,815.6,309.8,879.8,274.7,1.49,162,False,0.00919753086419753
734,799,1,46,AV,95,0.649,1,0,Young,416,607,192,863.2,312.1,868.8,374.6,1.6,350,False,0.004571428571428572
735,800,1,46,AV,96,2.045,0,0,Young,738,772,35,886.0,345.1,875.6,305.4,1.03,170,False,0.006058823529411765
736,801,1,47,A,81,2.031,1,0,Young,169,223,55,1254.1,145.6,824.7,298.9,8.89,505,False,0.017603960396039606
737,802,1,47,A,82,5.332,1,0,Young,479,575,97,814.5,342.7,875.1,898.0,13.35,295,False,0.045254237288135594
738,803,1,47,A,83,0.67,1,0,Young,646,705,60,842.8,791.3,823.1,472.5,7.7,370,False,0.02081081081081081
739,804,1,47,A,84,0.61,1,0,Young,765,826,62,830.4,451.8,801.0,295.6,3.99,369,False,0.0108130081300813
740,805,1,47,A,85,2.725,1,0,Young,172,218,47,852.9,217.6,940.4,272.0,2.15,170,False,0.01264705882352941
741,806,1,47,A,86,1.441,1,0,Young,480,744,265,953.5,298.9,914.0,342.6,1.34,674,False,0.0019881305637982198
742,807,1,47,A,87,4.55,0,0,Young,929,971,43,917.3,318.1,919.2,253.4,1.66,212,False,0.007830188679245283
743,808,1,47,A,88,4.894,0,0,Young,-17,50,68,1806.4,428.6,1865.0,65.1,8.99,400,False,0.022475000000000002
744,809,1,47,A,89,1.961,1,0,Young,206,278,73,1874.5,51.0,970.0,265.8,17.06,572,False,0.029825174825174824
745,810,1,47,A,90,0.838,1,0,Young,388,426,39,955.1,271.7,889.5,270.8,1.22,186,False,0.006559139784946237
746,811,1,47,A,91,0.708,1,0,Young,99,177,79,1798.4,49.0,894.7,274.5,17.25,496,False,0.03477822580645161
747,812,1,47,A,92,2.441,0,0,Young,546,623,78,884.2,306.1,885.7,482.0,4.45,254,False,0.01751968503937008
748,813,1,47,A,93,0.658,0,0,Young,675,903,229,889.2,463.7,862.6,246.7,5.53,340,False,0.01626470588235294
749,814,1,47,A,94,1.826,1,0,Young,42,51,10,852.8,260.1,840.0,271.8,0.38,46,False,0.00826086956521739
750,815,1,47,A,95,0.685,0,0,Young,356,424,69,835.2,256.0,863.1,545.9,7.31,394,False,0.018553299492385787
751,816,1,47,A,96,1.169,0,0,Young,541,607,67,871.0,537.2,862.6,278.1,6.53,475,False,0.013747368421052631
752,817,1,48,V,81,3.152,0,0,Young,58,103,46,877.4,299.3,1049.3,391.8,3.97,180,False,0.022055555555555557
753,818,1,48,V,82,0.802,1,0,Young,285,312,28,1055.9,388.1,1011.7,270.9,3.1,259,False,0.011969111969111969
754,819,1,48,V,83,0.564,1,0,Young,610,617,8,996.1,274.9,997.6,285.4,0.27,41,False,0.006585365853658537
755,820,1,48,V,84,0.564,0,0,Young,651,706,56,991.3,274.2,987.9,447.7,4.4,196,False,0.022448979591836737
756,821,1,48,V,85,1.104,1,0,Young,790,842,53,991.6,467.0,989.6,307.8,4.03,284,False,0.014190140845070424
757,822,1,48,V,86,0.88,1,0,Young,406,446,41,782.6,246.1,838.0,505.1,6.62,313,False,0.021150159744408946
758,823,1,48,V,87,0.693,1,0,Young,580,651,72,836.3,514.4,806.1,263.0,6.36,412,False,0.015436893203883495
759,824,1,48,V,88,0.905,1,0,Young,992,1016,25,809.5,282.5,714.7,286.0,1.76,151,False,0.011655629139072848
760,825,1,48,V,89,0.529,1,0,Young,-17,0,18,838.2,240.7,824.2,296.9,1.46,134,False,0.010895522388059702
761,826,1,48,V,90,0.729,1,0,Young,357,414,58,826.2,298.4,892.8,651.7,8.86,392,False,0.022602040816326528
762,827,1,48,V,91,0.715,1,0,Young,523,610,88,915.9,667.8,871.4,285.6,9.53,356,False,0.026769662921348313
763,828,1,48,V,92,0.774,0,0,Young,-47,3,51,773.8,247.3,969.9,253.2,3.65,236,False,0.015466101694915253
764,829,1,48,V,93,0.533,1,0,Young,246,286,41,989.8,254.7,860.2,252.3,2.42,224,False,0.010803571428571428
765,830,1,48,V,94,1.052,1,0,Young,469,538,70,843.8,240.8,820.4,716.3,11.75,386,False,0.03044041450777202
766,831,1,48,V,95,2.828,0,0,Young,674,749,76,831.8,728.0,842.5,246.2,11.88,602,False,0.01973421926910299
767,832,1,48,V,96,0.57,1,0,Young,192,241,50,911.5,269.0,981.2,349.7,2.44,229,False,0.010655021834061135
768,897,2,1,dA,1,1.89,0,0,Young,445,485,41,990.8,358.4,973.5,295.0,1.65,219,False,0.007534246575342465
769,898,2,1,dA,2,1.161,0,0,Young,742,779,38,969.6,286.4,988.9,437.6,3.85,163,False,0.02361963190184049
770,899,2,1,dA,3,1.611,0,0,Young,929,991,63,970.9,475.5,954.7,285.8,4.81,352,False,0.013664772727272727
771,900,2,1,dA,4,3.33,0,0,Young,360,421,62,816.4,268.1,866.6,489.6,5.68,230,False,0.024695652173913042
772,901,2,1,dA,5,8.241,0,0,Young,553,620,68,874.7,512.3,836.7,222.5,7.35,460,False,0.015978260869565216
773,902,2,1,dA,6,0.887,1,0,Young,968,992,25,858.5,259.3,846.8,344.4,2.18,171,False,0.012748538011695907
774,903,2,1,dA,7,2.017,0,0,Young,128,160,33,863.8,410.7,865.7,315.4,2.42,199,False,0.012160804020100502
775,904,2,1,dA,8,1.878,0,0,Young,266,308,43,863.2,331.5,927.0,275.8,1.85,310,False,0.005967741935483871
776,905,2,1,dA,9,1.268,1,0,Young,586,630,45,934.5,243.5,940.1,516.9,6.9,340,False,0.020294117647058824
777,906,2,1,dA,10,1.886,0,0,Young,809,873,65,944.4,534.6,939.8,290.1,6.16,468,False,0.013162393162393163
778,907,2,1,dA,11,1.351,1,0,Young,314,371,58,833.4,239.2,780.4,458.0,5.64,286,False,0.019720279720279718
779,908,2,1,dA,12,3.868,0,0,Young,545,610,66,794.6,490.4,814.9,256.6,5.92,375,False,0.015786666666666668
780,909,2,1,dA,13,1.931,0,0,Young,384,436,53,782.0,222.7,689.5,220.6,1.72,170,False,0.01011764705882353
781,910,2,1,dA,14,3.252,0,0,Young,579,601,23,708.9,238.7,753.4,298.6,1.74,93,False,0.01870967741935484
782,911,2,1,dA,15,3.445,0,0,Young,704,860,157,788.1,334.7,809.0,222.3,2.9,565,False,0.005132743362831859
783,912,2,1,dA,16,0.934,1,0,Young,320,370,51,841.0,213.9,914.7,314.1,2.92,212,False,0.013773584905660377
784,913,2,2,dAdV,1,1.499,1,3,Young,548,591,44,927.9,330.7,922.5,268.4,1.6,212,False,0.007547169811320755
785,914,2,2,dAdV,2,3.658,1,4,Young,982,992,11,900.8,239.4,876.3,258.0,0.66,74,False,0.00891891891891892
786,915,2,2,dAdV,3,1.897,1,4,Young,-50,160,211,790.0,261.5,830.5,247.8,0.83,401,False,0.0020698254364089775
787,916,2,2,dAdV,4,2.405,1,3,Young,423,458,36,853.2,251.2,880.5,272.0,0.74,142,False,0.005211267605633803
788,917,2,2,dAdV,5,3.448,0,2,Young,747,857,111,880.7,300.7,857.0,382.6,2.13,191,False,0.011151832460732983
789,918,2,2,dAdV,6,1.467,1,3,Young,932,953,22,857.0,386.1,856.7,335.1,1.3,79,False,0.016455696202531647
790,919,2,2,dAdV,7,3.422,0,3,Young,204,250,47,828.0,275.4,950.1,295.0,2.33,262,False,0.008893129770992367
791,920,2,2,dAdV,8,1.122,0,1,Young,199,248,50,763.1,222.7,843.9,277.0,2.05,188,False,0.010904255319148935
792,921,2,2,dAdV,9,1.117,1,1,Young,572,585,14,854.4,288.5,840.2,262.4,0.72,81,False,0.008888888888888889
793,922,2,2,dAdV,10,3.798,0,1,Young,611,616,6,848.4,288.3,846.0,301.7,0.35,71,False,0.004929577464788732
794,923,2,2,dAdV,11,2.933,1,4,Young,691,894,204,846.4,348.1,867.8,260.2,2.28,455,False,0.0050109890109890105
795,924,2,2,dAdV,12,4.319,1,3,Young,532,565,34,808.0,279.8,845.9,276.1,0.71,144,False,0.004930555555555555
796,925,2,2,dAdV,13,0.833,1,1,Young,68,251,184,830.0,252.6,946.6,304.0,2.54,641,False,0.003962558502340094
797,926,2,2,dAdV,14,1.255,1,3,Young,936,959,24,951.8,325.1,932.1,289.1,0.99,94,False,0.01053191489361702
798,927,2,2,dAdV,15,2.455,1,4,Young,1000,1262,263,951.8,325.1,932.1,289.1,0.99,0,True,inf
799,928,2,2,dAdV,16,1.564,1,1,Young,330,391,62,897.4,258.9,913.3,543.7,7.18,364,False,0.019725274725274723
800,929,2,3,dV,1,1.535,1,1,Young,540,605,66,916.2,557.0,867.1,228.4,8.32,523,False,0.015908221797323135
801,930,2,3,dV,2,3.324,0,1,Young,25,208,184,788.4,283.0,858.2,554.1,6.92,468,False,0.014786324786324787
802,931,2,3,dV,3,0.835,1,2,Young,347,417,71,854.1,560.7,852.2,246.8,7.9,483,False,0.016356107660455487
803,932,2,3,dV,4,2.168,0,4,Young,710,773,64,843.5,267.5,798.8,594.3,8.22,401,False,0.020498753117206985
804,933,2,3,dV,5,0.803,1,3,Young,893,978,86,812.7,597.7,820.4,271.0,8.18,518,False,0.015791505791505792
805,934,2,3,dV,6,3.476,0,3,Young,552,599,48,823.7,229.6,874.7,319.4,2.49,230,False,0.01082608695652174
806,935,2,3,dV,7,1.315,0,2,Young,795,848,54,892.4,339.0,880.9,252.4,2.23,276,False,0.008079710144927536
807,936,2,3,dV,8,1.276,1,4,Young,968,1138,171,872.9,269.4,855.8,289.4,0.6,748,False,0.0008021390374331551
808,937,2,3,dV,9,2.254,0,3,Young,360,454,95,826.7,313.7,912.8,903.9,14.24,360,False,0.03955555555555556
809,938,2,3,dV,10,1.208,0,4,Young,513,597,85,902.6,915.3,832.0,214.7,16.87,861,False,0.019593495934959352
810,939,2,3,dV,11,2.302,0,2,Young,954,1172,219,847.9,269.0,885.8,468.6,5.1,554,False,0.009205776173285198
811,940,2,3,dV,12,1.34,1,4,Young,-28,119,148,818.8,394.7,799.8,306.6,2.26,576,False,0.00392361111111111
812,941,2,3,dV,13,8.61,1,1,Young,584,628,45,829.3,313.1,869.1,425.8,2.95,245,False,0.012040816326530613
813,942,2,3,dV,14,1.0,0,4,Young,683,834,152,877.2,457.2,831.5,320.0,3.57,728,False,0.004903846153846154
814,943,2,3,dV,15,2.311,1,4,Young,82,270,189,776.6,327.4,884.5,430.4,3.29,475,False,0.006926315789473684
815,944,2,3,dV,16,3.808,1,1,Young,332,380,49,887.8,437.4,842.3,306.1,3.43,282,False,0.012163120567375887
816,945,2,4,AV,1,2.391,1,0,Young,640,694,55,830.9,284.8,813.6,515.1,5.81,290,False,0.02003448275862069
817,946,2,4,AV,2,2.465,1,0,Young,833,903,71,820.1,541.2,822.5,280.4,6.55,430,False,0.015232558139534884
818,947,2,4,AV,3,2.995,1,0,Young,-81,104,186,798.3,267.8,814.1,294.5,0.74,745,False,0.0009932885906040268
819,948,2,4,AV,4,1.21,1,0,Young,405,475,71,804.9,305.0,873.4,779.2,11.65,369,False,0.03157181571815718
820,949,2,4,AV,5,1.544,1,0,Young,571,645,75,860.4,786.4,817.8,282.5,12.33,705,False,0.01748936170212766
821,950,2,4,AV,6,2.247,1,0,Young,-24,4,29,761.4,298.9,808.1,240.7,1.72,179,False,0.009608938547486033
822,951,2,4,AV,7,0.875,1,0,Young,189,234,46,823.5,256.9,926.6,291.2,2.11,310,False,0.006806451612903225
823,952,2,4,AV,8,4.264,0,0,Young,389,599,211,949.2,328.0,912.6,566.5,6.01,942,False,0.00638004246284501
824,953,2,4,AV,9,1.113,0,0,Young,663,709,47,917.6,563.0,899.7,448.9,2.86,354,False,0.00807909604519774
825,954,2,4,AV,10,1.575,1,0,Young,789,834,46,893.6,426.4,904.1,346.1,2.04,312,False,0.006538461538461539
826,955,2,4,AV,11,0.712,1,0,Young,-50,108,159,784.6,263.1,807.1,242.4,0.68,603,False,0.0011276948590381428
827,956,2,4,AV,12,1.444,1,0,Young,420,553,134,798.0,240.5,850.0,734.8,12.23,472,False,0.025911016949152543
828,957,2,4,AV,13,1.216,0,0,Young,576,584,9,846.1,757.1,854.2,782.1,0.6,78,False,0.007692307692307692
829,958,2,4,AV,14,1.46,0,0,Young,620,700,81,859.1,795.6,792.5,268.6,12.93,678,False,0.01907079646017699
830,959,2,4,AV,15,3.988,0,0,Young,85,108,24,768.1,267.3,868.0,269.1,1.86,164,False,0.011341463414634148
831,960,2,4,AV,16,4.446,1,0,Young,444,494,51,842.3,277.5,824.9,595.2,7.96,273,False,0.029157509157509157
832,961,2,5,dAV,1,1.093,1,0,Young,594,662,69,810.0,609.8,783.0,245.3,9.11,445,False,0.020471910112359548
833,962,2,5,dAV,2,1.162,1,0,Young,867,920,54,797.4,251.7,812.2,182.9,1.79,233,False,0.007682403433476395
834,963,2,5,dAV,3,0.968,1,0,Young,204,260,57,848.5,433.4,815.3,247.8,4.75,366,False,0.012978142076502733
835,964,2,5,dAV,4,1.701,0,0,Young,470,575,106,813.4,250.9,911.9,744.4,12.27,305,False,0.04022950819672131
836,965,2,5,dAV,5,0.999,1,0,Young,707,790,84,909.5,755.8,824.3,256.3,12.37,608,False,0.020345394736842104
837,966,2,5,dAV,6,1.406,1,0,Young,201,261,61,890.0,455.0,827.9,294.8,4.22,354,False,0.01192090395480226
838,967,2,5,dAV,7,0.833,1,0,Young,558,620,63,832.5,311.1,815.1,633.5,8.02,333,False,0.024084084084084082
839,968,2,5,dAV,8,1.054,1,0,Young,766,839,74,833.7,633.8,812.0,289.4,8.59,530,False,0.01620754716981132
840,969,2,5,dAV,9,8.046,1,0,Young,321,393,73,810.5,266.0,936.5,870.9,14.79,453,False,0.03264900662251655
841,970,2,5,dAV,10,1.002,1,0,Young,525,608,84,939.1,866.9,858.1,247.4,15.05,701,False,0.02146932952924394
842,971,2,5,dAV,11,0.888,1,0,Young,186,230,45,769.7,240.0,821.6,309.4,2.02,271,False,0.007453874538745388
843,972,2,5,dAV,12,2.002,1,0,Young,463,521,59,834.6,356.4,907.7,840.1,11.76,544,False,0.02161764705882353
844,973,2,5,dAV,13,2.639,1,0,Young,645,721,77,894.8,863.3,861.5,259.4,14.62,759,False,0.019262187088274044
845,974,2,5,dAV,14,1.601,1,0,Young,997,1050,54,884.1,295.3,813.5,452.6,4.19,377,False,0.011114058355437667
846,975,2,5,dAV,15,1.051,1,0,Young,260,305,46,802.4,300.8,918.3,287.1,2.18,216,False,0.010092592592592594
847,976,2,5,dAV,16,2.746,1,0,Young,443,499,57,935.4,293.2,952.2,539.8,6.21,334,False,0.018592814371257486
848,977,2,6,V,1,0.739,1,0,Young,674,745,72,953.7,582.0,911.7,252.9,8.29,490,False,0.016918367346938773
849,978,2,6,V,2,0.834,1,0,Young,-45,171,217,885.0,328.6,809.7,292.3,1.68,532,False,0.003157894736842105
850,979,2,6,V,3,1.338,1,0,Young,631,793,163,804.0,297.6,861.7,698.7,9.96,435,False,0.02289655172413793
851,980,2,6,V,4,0.876,1,0,Young,819,898,80,868.2,718.6,833.9,214.2,12.49,627,False,0.019920255183413078
852,981,2,6,V,5,0.895,1,0,Young,154,198,45,831.9,250.6,951.9,288.7,2.44,268,False,0.009104477611940298
853,982,2,6,V,6,0.87,1,0,Young,720,725,6,968.3,291.9,954.5,285.5,0.3,64,False,0.0046875
854,983,2,6,V,7,3.146,1,0,Young,48,69,22,812.0,262.2,744.5,262.1,1.25,116,False,0.010775862068965518
855,984,2,6,V,8,2.048,0,0,Young,189,238,50,759.1,258.4,934.9,266.7,3.28,290,False,0.011310344827586206
856,985,2,6,V,9,2.336,0,0,Young,932,960,29,955.2,272.9,977.2,269.1,0.42,117,False,0.0035897435897435897
857,986,2,6,V,10,2.511,0,0,Young,-55,7,63,1014.7,389.1,792.9,278.0,4.99,272,False,0.018345588235294117
858,987,2,6,V,11,1.978,1,0,Young,314,348,35,789.1,260.5,804.2,281.0,0.6,152,False,0.003947368421052632
859,988,2,6,V,12,2.365,0,0,Young,47,72,26,793.0,272.1,801.5,381.8,2.8,241,False,0.011618257261410787
860,989,2,6,V,13,1.076,1,0,Young,227,266,40,804.9,362.7,836.2,310.7,1.44,258,False,0.005581395348837209
861,990,2,6,V,14,1.21,1,0,Young,521,540,20,842.0,286.2,800.5,275.1,0.82,87,False,0.00942528735632184
862,991,2,6,V,15,0.711,0,0,Young,860,888,29,806.9,277.6,833.3,273.4,0.5,106,False,0.0047169811320754715
863,992,2,6,V,16,1.166,0,0,Young,-82,114,197,822.7,287.8,818.9,292.6,0.14,602,False,0.00023255813953488373
864,993,2,7,AdV,1,0.907,1,4,Young,235,272,38,819.7,272.4,887.8,263.4,1.29,180,False,0.007166666666666667
865,994,2,7,AdV,2,1.616,1,2,Young,587,603,17,904.5,256.8,877.2,225.6,0.95,80,False,0.011875
866,995,2,7,AdV,3,0.966,0,1,Young,921,942,22,888.1,236.4,958.3,221.1,1.37,129,False,0.01062015503875969
867,996,2,7,AdV,4,4.103,1,3,Young,222,264,43,822.2,324.6,855.8,253.4,1.93,270,False,0.007148148148148148
868,997,2,7,AdV,5,0.852,0,4,Young,821,1008,188,851.6,220.0,879.9,621.7,10.06,720,False,0.013972222222222223
869,998,2,7,AdV,6,5.365,0,4,Young,218,274,57,816.9,334.4,828.5,234.7,2.56,302,False,0.00847682119205298
870,999,2,7,AdV,7,2.101,1,4,Young,657,679,23,828.5,202.5,848.9,202.5,0.38,72,False,0.005277777777777778
871,1000,2,7,AdV,8,1.028,0,2,Young,965,988,24,851.4,214.4,786.5,203.2,1.24,105,False,0.01180952380952381
872,1001,2,7,AdV,9,2.149,1,3,Young,146,200,55,874.9,63.4,865.5,257.2,5.0,426,False,0.011737089201877934
873,1002,2,7,AdV,10,0.856,0,1,Young,426,448,23,872.1,288.6,800.8,284.3,1.33,127,False,0.010472440944881891
874,1003,2,7,AdV,11,0.989,1,1,Young,82,143,62,878.8,272.3,1105.3,328.3,4.45,321,False,0.013862928348909658
875,1004,2,7,AdV,12,4.165,0,4,Young,195,252,58,1105.5,343.2,852.8,371.2,4.74,368,False,0.012880434782608696
876,1005,2,7,AdV,13,1.999,1,3,Young,546,579,34,862.5,373.5,839.1,349.9,0.74,131,False,0.005648854961832061
877,1006,2,7,AdV,14,0.668,1,1,Young,552,577,26,827.9,277.7,821.0,332.1,1.4,116,False,0.01206896551724138
878,1007,2,7,AdV,15,0.94,1,4,Young,961,975,15,808.9,332.3,762.5,331.5,0.86,81,False,0.010617283950617284
879,1008,2,7,AdV,16,0.805,1,1,Young,186,222,37,751.1,229.9,810.6,237.2,1.12,197,False,0.00568527918781726
880,1009,2,8,A,1,1.178,1,0,Young,564,577,14,826.9,232.0,793.4,227.3,0.64,73,False,0.008767123287671232
881,1010,2,8,A,2,2.709,0,0,Young,869,886,18,803.3,244.1,840.8,236.3,0.73,80,False,0.009125
882,1011,2,8,A,3,1.085,1,0,Young,-7,188,196,726.4,372.9,757.9,304.7,1.83,555,False,0.0032972972972972973
883,1012,2,8,A,4,1.162,1,0,Young,357,395,39,760.4,288.0,797.7,254.2,1.11,224,False,0.004955357142857143
884,1013,2,8,A,5,1.181,1,0,Young,860,879,20,805.0,235.3,772.6,237.0,0.6,72,False,0.008333333333333333
885,1014,2,8,A,6,1.144,1,0,Young,215,252,38,798.4,211.8,825.2,239.8,0.88,147,False,0.00598639455782313
886,1015,2,8,A,7,0.788,0,0,Young,566,598,33,831.3,243.0,825.4,233.3,0.27,113,False,0.0023893805309734514
887,1016,2,8,A,8,0.757,1,0,Young,960,991,32,819.9,238.6,843.1,238.8,0.43,106,False,0.004056603773584906
888,1017,2,8,A,9,0.899,0,0,Young,159,209,51,728.7,264.2,858.7,273.7,2.43,244,False,0.009959016393442623
889,1018,2,8,A,10,4.614,1,0,Young,970,1003,34,817.6,241.0,824.6,219.8,0.56,137,False,0.004087591240875913
890,1019,2,8,A,11,1.132,1,0,Young,31,225,195,821.6,394.4,780.7,304.7,2.4,780,False,0.003076923076923077
891,1020,2,8,A,12,3.688,1,0,Young,621,655,35,775.1,261.1,734.9,266.1,0.76,138,False,0.0055072463768115944
892,1021,2,8,A,13,0.957,1,0,Young,201,240,40,772.1,281.2,824.5,288.2,0.99,217,False,0.00456221198156682
893,1022,2,8,A,14,2.614,1,0,Young,915,935,21,843.3,290.5,904.3,270.4,1.25,124,False,0.010080645161290322
894,1023,2,8,A,15,0.955,0,0,Young,171,235,65,752.3,491.4,891.8,253.8,6.54,393,False,0.016641221374045802
895,1024,2,8,A,16,1.271,0,0,Young,526,594,69,888.0,264.5,828.5,658.5,9.85,406,False,0.024261083743842362
896,1025,2,9,dAdV,17,0.649,1,2,Young,749,823,75,840.5,651.6,870.9,275.7,9.37,498,False,0.018815261044176704
897,1026,2,9,dAdV,18,4.82,0,4,Young,60,112,53,774.7,244.3,844.6,298.3,1.9,157,False,0.012101910828025477
898,1027,2,9,dAdV,19,4.741,0,3,Young,480,508,29,855.5,324.1,814.8,469.7,3.75,317,False,0.011829652996845425
899,1028,2,9,dAdV,20,0.769,0,2,Young,599,657,59,815.1,479.4,809.7,296.6,4.62,401,False,0.011521197007481297
900,1029,2,9,dAdV,21,1.869,0,1,Young,-29,35,65,872.2,383.3,799.6,216.4,4.47,377,False,0.011856763925729442
901,1030,2,9,dAdV,22,0.673,1,4,Young,496,657,162,805.7,242.5,844.8,353.4,2.93,863,False,0.00339513325608343
902,1031,2,9,dAdV,23,2.42,1,2,Young,850,884,35,837.6,337.9,828.9,257.6,2.06,257,False,0.008015564202334631
903,1032,2,9,dAdV,24,2.096,1,2,Young,99,142,44,768.2,286.9,822.2,234.1,1.69,159,False,0.010628930817610063
904,1033,2,9,dAdV,25,1.725,0,3,Young,366,431,66,833.8,229.9,915.1,430.6,5.33,337,False,0.015816023738872403
905,1034,2,9,dAdV,26,0.947,0,2,Young,581,644,64,911.5,429.7,897.1,245.6,4.69,404,False,0.01160891089108911
906,1035,2,9,dAdV,27,3.701,1,4,Young,116,151,36,822.4,349.1,814.6,318.2,0.8,170,False,0.004705882352941177
907,1036,2,9,dAdV,28,0.849,1,3,Young,255,302,48,815.8,309.2,932.4,257.1,2.55,258,False,0.009883720930232558
908,1037,2,9,dAdV,29,1.02,1,3,Young,508,590,83,942.3,262.7,893.8,800.7,13.15,418,False,0.03145933014354067
909,1038,2,9,dAdV,30,2.485,0,1,Young,734,811,78,880.1,816.8,915.0,251.8,13.8,678,False,0.020353982300884955
910,1039,2,9,dAdV,31,1.896,0,2,Young,48,103,56,879.7,402.5,795.4,286.1,3.35,234,False,0.014316239316239317
911,1040,2,9,dAdV,32,1.472,0,2,Young,346,399,54,789.4,267.9,785.9,432.4,4.18,290,False,0.014413793103448275
912,1041,2,10,AV,17,1.403,1,0,Young,577,636,60,791.0,456.1,772.6,313.7,3.62,359,False,0.010083565459610028
913,1042,2,10,AV,18,1.141,1,0,Young,77,257,181,834.4,244.6,939.7,358.9,3.52,641,False,0.005491419656786271
914,1043,2,10,AV,19,1.238,1,0,Young,553,609,57,933.6,355.7,869.3,557.8,5.2,214,False,0.024299065420560748
915,1044,2,10,AV,20,2.761,0,0,Young,703,768,66,883.9,574.3,902.4,335.5,5.99,542,False,0.011051660516605166
916,1045,2,10,AV,21,1.023,1,0,Young,50,67,18,804.6,257.7,799.3,302.0,1.14,76,False,0.015
917,1046,2,10,AV,22,3.903,1,0,Young,366,424,59,791.3,326.3,776.7,721.6,9.73,405,False,0.024024691358024694
918,1047,2,10,AV,23,2.599,1,0,Young,559,637,79,794.8,761.1,784.1,241.3,12.76,541,False,0.023585951940850277
919,1048,2,10,AV,24,1.091,1,0,Young,129,232,104,1058.3,575.3,906.4,356.5,6.14,624,False,0.009839743589743589
920,1049,2,10,AV,25,1.053,1,0,Young,293,327,35,910.1,333.6,869.9,252.1,2.22,296,False,0.007500000000000001
921,1050,2,10,AV,26,0.885,1,0,Young,743,798,56,855.4,219.2,844.4,525.1,7.72,346,False,0.0223121387283237
922,1051,2,10,AV,27,1.293,1,0,Young,954,1019,66,848.8,544.3,853.8,200.2,8.68,464,False,0.018706896551724136
923,1052,2,10,AV,28,1.636,1,0,Young,183,227,45,729.7,321.2,838.3,279.0,2.29,244,False,0.009385245901639345
924,1053,2,10,AV,29,0.985,1,0,Young,433,524,92,859.2,280.2,837.1,869.8,14.25,379,False,0.037598944591029027
925,1054,2,10,AV,30,1.075,1,0,Young,614,694,81,837.1,882.0,810.4,329.8,13.28,711,False,0.018677918424753866
926,1055,2,10,AV,31,1.496,1,0,Young,952,990,39,824.9,364.2,825.7,294.5,1.78,296,False,0.006013513513513514
927,1056,2,10,AV,32,5.708,0,0,Young,446,543,98,274.0,1402.7,847.7,346.9,24.75,670,False,0.036940298507462686
928,1057,2,11,dA,17,1.991,1,0,Young,632,681,50,861.7,368.5,890.5,258.6,2.85,398,False,0.007160804020100503
929,1058,2,11,dA,18,3.041,0,0,Young,212,261,50,804.6,271.9,903.7,345.3,2.63,357,False,0.007366946778711484
930,1059,2,11,dA,19,3.149,1,0,Young,449,494,46,916.1,371.3,863.0,335.4,1.34,193,False,0.00694300518134715
931,1060,2,11,dA,20,1.82,1,0,Young,633,661,29,858.5,322.9,843.8,456.5,3.39,232,False,0.014612068965517241
932,1061,2,11,dA,21,4.021,0,0,Young,850,907,58,844.2,449.7,848.3,309.6,3.55,348,False,0.010201149425287355
933,1062,2,11,dA,22,1.353,1,0,Young,135,200,66,1060.5,450.9,850.3,270.5,6.01,369,False,0.016287262872628726
934,1063,2,11,dA,23,1.35,1,0,Young,510,588,79,851.8,273.4,862.7,890.3,14.85,373,False,0.039812332439678286
935,1064,2,11,dA,24,2.198,1,0,Young,718,757,40,867.8,899.1,813.3,402.5,11.89,589,False,0.020186757215619695
936,1065,2,11,dA,25,1.665,1,0,Young,781,901,121,817.3,375.6,824.2,351.9,0.61,59,False,0.010338983050847458
937,1066,2,11,dA,26,4.768,0,0,Young,-35,143,179,776.0,271.0,807.3,315.1,1.27,667,False,0.001904047976011994
938,1067,2,11,dA,27,0.931,1,0,Young,363,405,43,817.1,284.7,880.8,271.7,1.23,192,False,0.00640625
939,1068,2,11,dA,28,2.088,0,0,Young,581,615,35,896.9,292.2,893.5,429.8,3.49,268,False,0.013022388059701493
940,1069,2,11,dA,29,1.02,1,0,Young,736,786,51,885.5,435.4,863.4,323.2,2.87,326,False,0.008803680981595093
941,1070,2,11,dA,30,3.715,0,0,Young,170,230,61,791.2,216.6,911.5,407.7,5.36,412,False,0.013009708737864079
942,1071,2,11,dA,31,1.092,1,0,Young,424,488,65,916.1,425.9,842.1,230.8,5.15,406,False,0.01268472906403941
943,1072,2,11,dA,32,1.44,0,0,Young,770,841,72,851.6,255.2,853.6,628.0,9.3,337,False,0.027596439169139467
